LabVIEW Measurement	
Writer_Version	2
Reader_Version	2
Separator	Tab
Decimal_Separator	.
Multi_Headings	Yes
X_Columns	One
Time_Pref	Absolute
Operator	labuser
Date	2023/05/16
Time	09:57:08.7002409999996375742
***End_of_Header***	
	
Channels	1	
Samples	10000	
Date	2023/05/16	
Time	09:57:08.7002409999996375742	
Y_Unit_Label	Volts	
X_Dimension	Time	
X0	0.0000000000000000E+0	
Delta_X	0.000500	
***End_of_Header***		
X_Value	Voltage	Comment
0.000000	1.633185
0.000500	1.629999
0.001000	1.631592
0.001500	1.635096
0.002000	1.632866
0.002500	1.631273
0.003000	1.632229
0.003500	1.632229
0.004000	1.633822
0.004500	1.633503
0.005000	1.629044
0.005500	1.631273
0.006000	1.634777
0.006500	1.632229
0.007000	1.630955
0.007500	1.633185
0.008000	1.631592
0.008500	1.633503
0.009000	1.633185
0.009500	1.629362
0.010000	1.632547
0.010500	1.635414
0.011000	1.632547
0.011500	1.631273
0.012000	1.632866
0.012500	1.631910
0.013000	1.633185
0.013500	1.633503
0.014000	1.629044
0.014500	1.631592
0.015000	1.634140
0.015500	1.631273
0.016000	1.631592
0.016500	1.632866
0.017000	1.631910
0.017500	1.634140
0.018000	1.633822
0.018500	1.629999
0.019000	1.632866
0.019500	1.634140
0.020000	1.632866
0.020500	1.631273
0.021000	1.632866
0.021500	1.632229
0.022000	1.634459
0.022500	1.633503
0.023000	1.630636
0.023500	1.632866
0.024000	1.633822
0.024500	1.631910
0.025000	1.632866
0.025500	1.632547
0.026000	1.631910
0.026500	1.634777
0.027000	1.633185
0.027500	1.629999
0.028000	1.632866
0.028500	1.633822
0.029000	1.630955
0.029500	1.633503
0.030000	1.632547
0.030500	1.631592
0.031000	1.635096
0.031500	1.633185
0.032000	1.630955
0.032500	1.633503
0.033000	1.633185
0.033500	1.632229
0.034000	1.632866
0.034500	1.631592
0.035000	1.631910
0.035500	1.635096
0.036000	1.633185
0.036500	1.630955
0.037000	1.633185
0.037500	1.632866
0.038000	1.632229
0.038500	1.633503
0.039000	1.631592
0.039500	1.632547
0.040000	1.635733
0.040500	1.633822
0.041000	1.631273
0.041500	1.633185
0.042000	1.632547
0.042500	1.633185
0.043000	1.633822
0.043500	1.630955
0.044000	1.631273
0.044500	1.635414
0.045000	1.632866
0.045500	1.632229
0.046000	1.633822
0.046500	1.633503
0.047000	1.633822
0.047500	1.633822
0.048000	1.630636
0.048500	1.632229
0.049000	1.634777
0.049500	1.633185
0.050000	1.633185
0.050500	1.632866
0.051000	1.632547
0.051500	1.634459
0.052000	1.634140
0.052500	1.630318
0.053000	1.633503
0.053500	1.635733
0.054000	1.631910
0.054500	1.632866
0.055000	1.632866
0.055500	1.632547
0.056000	1.636051
0.056500	1.634140
0.057000	1.630955
0.057500	1.632229
0.058000	1.633822
0.058500	1.632866
0.059000	1.634140
0.059500	1.633822
0.060000	1.632866
0.060500	1.636051
0.061000	1.633822
0.061500	1.631273
0.062000	1.633822
0.062500	1.633822
0.063000	1.633185
0.063500	1.634140
0.064000	1.632866
0.064500	1.632229
0.065000	1.636370
0.065500	1.634140
0.066000	1.630955
0.066500	1.633822
0.067000	1.633503
0.067500	1.633185
0.068000	1.633822
0.068500	1.631592
0.069000	1.631592
0.069500	1.635414
0.070000	1.633822
0.070500	1.631592
0.071000	1.633503
0.071500	1.631910
0.072000	1.632866
0.072500	1.633822
0.073000	1.631273
0.073500	1.632866
0.074000	1.635733
0.074500	1.633185
0.075000	1.632547
0.075500	1.633185
0.076000	1.633822
0.076500	1.633822
0.077000	1.634140
0.077500	1.631273
0.078000	1.632229
0.078500	1.635096
0.079000	1.632866
0.079500	1.632547
0.080000	1.632866
0.080500	1.631910
0.081000	1.634777
0.081500	1.633822
0.082000	1.629681
0.082500	1.633185
0.083000	1.633822
0.083500	1.631910
0.084000	1.631910
0.084500	1.632547
0.085000	1.632229
0.085500	1.635414
0.086000	1.633822
0.086500	1.629681
0.087000	1.632866
0.087500	1.633822
0.088000	1.632866
0.088500	1.633503
0.089000	1.632547
0.089500	1.631910
0.090000	1.635733
0.090500	1.633503
0.091000	1.630318
0.091500	1.632866
0.092000	1.632866
0.092500	1.633185
0.093000	1.633503
0.093500	1.631273
0.094000	1.632547
0.094500	1.635733
0.095000	1.633503
0.095500	1.632229
0.096000	1.632547
0.096500	1.633185
0.097000	1.633503
0.097500	1.633822
0.098000	1.630636
0.098500	1.631273
0.099000	1.635414
0.099500	1.632866
0.100000	1.632229
0.100500	1.633185
0.101000	1.632866
0.101500	1.633822
0.102000	1.633822
0.102500	1.630318
0.103000	1.631910
0.103500	1.634777
0.104000	1.633185
0.104500	1.632547
0.105000	1.633185
0.105500	1.632229
0.106000	1.634777
0.106500	1.633503
0.107000	1.630318
0.107500	1.633503
0.108000	1.634459
0.108500	1.632866
0.109000	1.633503
0.109500	1.632866
0.110000	1.631910
0.110500	1.634459
0.111000	1.633822
0.111500	1.630636
0.112000	1.633503
0.112500	1.634140
0.113000	1.632547
0.113500	1.633822
0.114000	1.632229
0.114500	1.631910
0.115000	1.635414
0.115500	1.633185
0.116000	1.630955
0.116500	1.633185
0.117000	1.633822
0.117500	1.632229
0.118000	1.633503
0.118500	1.631592
0.119000	1.631273
0.119500	1.636370
0.120000	1.633822
0.120500	1.630636
0.121000	1.633185
0.121500	1.633503
0.122000	1.632866
0.122500	1.632547
0.123000	1.630955
0.123500	1.632229
0.124000	1.635733
0.124500	1.633822
0.125000	1.632229
0.125500	1.634140
0.126000	1.635733
0.126500	1.633185
0.127000	1.633822
0.127500	1.631592
0.128000	1.632547
0.128500	1.635733
0.129000	1.634140
0.129500	1.633185
0.130000	1.633503
0.130500	1.633185
0.131000	1.633185
0.131500	1.633822
0.132000	1.630318
0.132500	1.632229
0.133000	1.635096
0.133500	1.633822
0.134000	1.632866
0.134500	1.633822
0.135000	1.633503
0.135500	1.633822
0.136000	1.633822
0.136500	1.630636
0.137000	1.632547
0.137500	1.634140
0.138000	1.632866
0.138500	1.633185
0.139000	1.633503
0.139500	1.632866
0.140000	1.635096
0.140500	1.635096
0.141000	1.629999
0.141500	1.633185
0.142000	1.635096
0.142500	1.633185
0.143000	1.632866
0.143500	1.633503
0.144000	1.632229
0.144500	1.635096
0.145000	1.634459
0.145500	1.630955
0.146000	1.633185
0.146500	1.633822
0.147000	1.632547
0.147500	1.633822
0.148000	1.632866
0.148500	1.632547
0.149000	1.636688
0.149500	1.633503
0.150000	1.631273
0.150500	1.633822
0.151000	1.633822
0.151500	1.632229
0.152000	1.633822
0.152500	1.631910
0.153000	1.632547
0.153500	1.635414
0.154000	1.633822
0.154500	1.631910
0.155000	1.633503
0.155500	1.633503
0.156000	1.633185
0.156500	1.633822
0.157000	1.631273
0.157500	1.632866
0.158000	1.636370
0.158500	1.633503
0.159000	1.631592
0.159500	1.633822
0.160000	1.633185
0.160500	1.632866
0.161000	1.633822
0.161500	1.631273
0.162000	1.633185
0.162500	1.636370
0.163000	1.632866
0.163500	1.632229
0.164000	1.633503
0.164500	1.633822
0.165000	1.633503
0.165500	1.633503
0.166000	1.630318
0.166500	1.632547
0.167000	1.635733
0.167500	1.632866
0.168000	1.632866
0.168500	1.633822
0.169000	1.633185
0.169500	1.633822
0.170000	1.634459
0.170500	1.629999
0.171000	1.632547
0.171500	1.634777
0.172000	1.632547
0.172500	1.632866
0.173000	1.633503
0.173500	1.632229
0.174000	1.633822
0.174500	1.634140
0.175000	1.629681
0.175500	1.631910
0.176000	1.633822
0.176500	1.632547
0.177000	1.632229
0.177500	1.633185
0.178000	1.632229
0.178500	1.635414
0.179000	1.633822
0.179500	1.630318
0.180000	1.633503
0.180500	1.633822
0.181000	1.631273
0.181500	1.633185
0.182000	1.632547
0.182500	1.631592
0.183000	1.634777
0.183500	1.633503
0.184000	1.630636
0.184500	1.633822
0.185000	1.633503
0.185500	1.632866
0.186000	1.633822
0.186500	1.630955
0.187000	1.631910
0.187500	1.635096
0.188000	1.632547
0.188500	1.631273
0.189000	1.632547
0.189500	1.632547
0.190000	1.632866
0.190500	1.633503
0.191000	1.630636
0.191500	1.631910
0.192000	1.635414
0.192500	1.632547
0.193000	1.631910
0.193500	1.633822
0.194000	1.633185
0.194500	1.633822
0.195000	1.633822
0.195500	1.630636
0.196000	1.631910
0.196500	1.634777
0.197000	1.631592
0.197500	1.632866
0.198000	1.633185
0.198500	1.631910
0.199000	1.634459
0.199500	1.633503
0.200000	1.629681
0.200500	1.632547
0.201000	1.633822
0.201500	1.631592
0.202000	1.632229
0.202500	1.632229
0.203000	1.631910
0.203500	1.633822
0.204000	1.633503
0.204500	1.629681
0.205000	1.631273
0.205500	1.633185
0.206000	1.631910
0.206500	1.632866
0.207000	1.630955
0.207500	1.631910
0.208000	1.635096
0.208500	1.633503
0.209000	1.630636
0.209500	1.633185
0.210000	1.633822
0.210500	1.632547
0.211000	1.632229
0.211500	1.630636
0.212000	1.631273
0.212500	1.635733
0.213000	1.633185
0.213500	1.630318
0.214000	1.632866
0.214500	1.632866
0.215000	1.631910
0.215500	1.632547
0.216000	1.629999
0.216500	1.631273
0.217000	1.635414
0.217500	1.632547
0.218000	1.632229
0.218500	1.633185
0.219000	1.631910
0.219500	1.633185
0.220000	1.633822
0.220500	1.629999
0.221000	1.632229
0.221500	1.634140
0.222000	1.631592
0.222500	1.631910
0.223000	1.633503
0.223500	1.631273
0.224000	1.634140
0.224500	1.633503
0.225000	1.629362
0.225500	1.631592
0.226000	1.634777
0.226500	1.632229
0.227000	1.632229
0.227500	1.633185
0.228000	1.631273
0.228500	1.632866
0.229000	1.633822
0.229500	1.628725
0.230000	1.632547
0.230500	1.633822
0.231000	1.631592
0.231500	1.631910
0.232000	1.632547
0.232500	1.631910
0.233000	1.635096
0.233500	1.633503
0.234000	1.629681
0.234500	1.632229
0.235000	1.633185
0.235500	1.631910
0.236000	1.633185
0.236500	1.630955
0.237000	1.631273
0.237500	1.635096
0.238000	1.632547
0.238500	1.631273
0.239000	1.633503
0.239500	1.632866
0.240000	1.631910
0.240500	1.633503
0.241000	1.630636
0.241500	1.630955
0.242000	1.635414
0.242500	1.631910
0.243000	1.631273
0.243500	1.633503
0.244000	1.632229
0.244500	1.632547
0.245000	1.633822
0.245500	1.629999
0.246000	1.632866
0.246500	1.634459
0.247000	1.632547
0.247500	1.632229
0.248000	1.633503
0.248500	1.631273
0.249000	1.634140
0.249500	1.633822
0.250000	1.629362
0.250500	1.632547
0.251000	1.634140
0.251500	1.631910
0.252000	1.633503
0.252500	1.632547
0.253000	1.631592
0.253500	1.634459
0.254000	1.633503
0.254500	1.629362
0.255000	1.632229
0.255500	1.633185
0.256000	1.632547
0.256500	1.632866
0.257000	1.632547
0.257500	1.631592
0.258000	1.634777
0.258500	1.633185
0.259000	1.630318
0.259500	1.632547
0.260000	1.632866
0.260500	1.632547
0.261000	1.633503
0.261500	1.630955
0.262000	1.631273
0.262500	1.635096
0.263000	1.634140
0.263500	1.630955
0.264000	1.632547
0.264500	1.632547
0.265000	1.632547
0.265500	1.633185
0.266000	1.630636
0.266500	1.631592
0.267000	1.635733
0.267500	1.633185
0.268000	1.631273
0.268500	1.633503
0.269000	1.632866
0.269500	1.633185
0.270000	1.633822
0.270500	1.630955
0.271000	1.631910
0.271500	1.635414
0.272000	1.632547
0.272500	1.631592
0.273000	1.633503
0.273500	1.632547
0.274000	1.633822
0.274500	1.633822
0.275000	1.629999
0.275500	1.632866
0.276000	1.634777
0.276500	1.633185
0.277000	1.631910
0.277500	1.632547
0.278000	1.631273
0.278500	1.633822
0.279000	1.633185
0.279500	1.630318
0.280000	1.632866
0.280500	1.633822
0.281000	1.632866
0.281500	1.632866
0.282000	1.632547
0.282500	1.632229
0.283000	1.635096
0.283500	1.633822
0.284000	1.630318
0.284500	1.633185
0.285000	1.633503
0.285500	1.632866
0.286000	1.632229
0.286500	1.632866
0.287000	1.632229
0.287500	1.634777
0.288000	1.633185
0.288500	1.631592
0.289000	1.633503
0.289500	1.633503
0.290000	1.632547
0.290500	1.633503
0.291000	1.630636
0.291500	1.631910
0.292000	1.635414
0.292500	1.632866
0.293000	1.631273
0.293500	1.633185
0.294000	1.632229
0.294500	1.632547
0.295000	1.633185
0.295500	1.629999
0.296000	1.631592
0.296500	1.634777
0.297000	1.632229
0.297500	1.632229
0.298000	1.633503
0.298500	1.631910
0.299000	1.633822
0.299500	1.633503
0.300000	1.629681
0.300500	1.631273
0.301000	1.633822
0.301500	1.631910
0.302000	1.632547
0.302500	1.632547
0.303000	1.631592
0.303500	1.633822
0.304000	1.633185
0.304500	1.629044
0.305000	1.630955
0.305500	1.633185
0.306000	1.631592
0.306500	1.632866
0.307000	1.631910
0.307500	1.630955
0.308000	1.634777
0.308500	1.633185
0.309000	1.629999
0.309500	1.633185
0.310000	1.631910
0.310500	1.632229
0.311000	1.632866
0.311500	1.630636
0.312000	1.631592
0.312500	1.634459
0.313000	1.631910
0.313500	1.630318
0.314000	1.632866
0.314500	1.631910
0.315000	1.632229
0.315500	1.633185
0.316000	1.629999
0.316500	1.630955
0.317000	1.635096
0.317500	1.632547
0.318000	1.631592
0.318500	1.633185
0.319000	1.631592
0.319500	1.633185
0.320000	1.633185
0.320500	1.629681
0.321000	1.631910
0.321500	1.633822
0.322000	1.631273
0.322500	1.632229
0.323000	1.632866
0.323500	1.631273
0.324000	1.633503
0.324500	1.632866
0.325000	1.628725
0.325500	1.632866
0.326000	1.633822
0.326500	1.631273
0.327000	1.631910
0.327500	1.632229
0.328000	1.631273
0.328500	1.634459
0.329000	1.633185
0.329500	1.629681
0.330000	1.633185
0.330500	1.632866
0.331000	1.632229
0.331500	1.633185
0.332000	1.630636
0.332500	1.632866
0.333000	1.635414
0.333500	1.633503
0.334000	1.630636
0.334500	1.633822
0.335000	1.632866
0.335500	1.632229
0.336000	1.633185
0.336500	1.629999
0.337000	1.631910
0.337500	1.634777
0.338000	1.633185
0.338500	1.632229
0.339000	1.633185
0.339500	1.631910
0.340000	1.633822
0.340500	1.633503
0.341000	1.629362
0.341500	1.631592
0.342000	1.635733
0.342500	1.632866
0.343000	1.631592
0.343500	1.633185
0.344000	1.632229
0.344500	1.633822
0.345000	1.634140
0.345500	1.629999
0.346000	1.632866
0.346500	1.634140
0.347000	1.632229
0.347500	1.632547
0.348000	1.633185
0.348500	1.632229
0.349000	1.636051
0.349500	1.633503
0.350000	1.630636
0.350500	1.632866
0.351000	1.633503
0.351500	1.632547
0.352000	1.633503
0.352500	1.633185
0.353000	1.632229
0.353500	1.634777
0.354000	1.633185
0.354500	1.630636
0.355000	1.634140
0.355500	1.633503
0.356000	1.632547
0.356500	1.633503
0.357000	1.631273
0.357500	1.631910
0.358000	1.635733
0.358500	1.632866
0.359000	1.630636
0.359500	1.633503
0.360000	1.632866
0.360500	1.633185
0.361000	1.634140
0.361500	1.631273
0.362000	1.631592
0.362500	1.635414
0.363000	1.632866
0.363500	1.631592
0.364000	1.633822
0.364500	1.632866
0.365000	1.632547
0.365500	1.633822
0.366000	1.630636
0.366500	1.632547
0.367000	1.636051
0.367500	1.632866
0.368000	1.632547
0.368500	1.633822
0.369000	1.633185
0.369500	1.633822
0.370000	1.633822
0.370500	1.630318
0.371000	1.633185
0.371500	1.634459
0.372000	1.631910
0.372500	1.633185
0.373000	1.633503
0.373500	1.632229
0.374000	1.634459
0.374500	1.633503
0.375000	1.629999
0.375500	1.632229
0.376000	1.633185
0.376500	1.631592
0.377000	1.633503
0.377500	1.631273
0.378000	1.631592
0.378500	1.634777
0.379000	1.633503
0.379500	1.631910
0.380000	1.633185
0.380500	1.633503
0.381000	1.631910
0.381500	1.633503
0.382000	1.631273
0.382500	1.631273
0.383000	1.635733
0.383500	1.632547
0.384000	1.631273
0.384500	1.633185
0.385000	1.631910
0.385500	1.632866
0.386000	1.634140
0.386500	1.630318
0.387000	1.631273
0.387500	1.634777
0.388000	1.632547
0.388500	1.630955
0.389000	1.633185
0.389500	1.632229
0.390000	1.633822
0.390500	1.633822
0.391000	1.629681
0.391500	1.631273
0.392000	1.634459
0.392500	1.631910
0.393000	1.632547
0.393500	1.633185
0.394000	1.631273
0.394500	1.633822
0.395000	1.632866
0.395500	1.629044
0.396000	1.632229
0.396500	1.633822
0.397000	1.631910
0.397500	1.632229
0.398000	1.631592
0.398500	1.631910
0.399000	1.634140
0.399500	1.634140
0.400000	1.629999
0.400500	1.632547
0.401000	1.633185
0.401500	1.631910
0.402000	1.633822
0.402500	1.631910
0.403000	1.630955
0.403500	1.634140
0.404000	1.632866
0.404500	1.630636
0.405000	1.633503
0.405500	1.631592
0.406000	1.631592
0.406500	1.632547
0.407000	1.630955
0.407500	1.629999
0.408000	1.635096
0.408500	1.632547
0.409000	1.630955
0.409500	1.633503
0.410000	1.632547
0.410500	1.632229
0.411000	1.633185
0.411500	1.629681
0.412000	1.632229
0.412500	1.634459
0.413000	1.632547
0.413500	1.631592
0.414000	1.633185
0.414500	1.632229
0.415000	1.633185
0.415500	1.633185
0.416000	1.629362
0.416500	1.632229
0.417000	1.633822
0.417500	1.631273
0.418000	1.632547
0.418500	1.633185
0.419000	1.632547
0.419500	1.634140
0.420000	1.633185
0.420500	1.629044
0.421000	1.632866
0.421500	1.633822
0.422000	1.632547
0.422500	1.632866
0.423000	1.631910
0.423500	1.631592
0.424000	1.634459
0.424500	1.633503
0.425000	1.630636
0.425500	1.633185
0.426000	1.633503
0.426500	1.632229
0.427000	1.632866
0.427500	1.632229
0.428000	1.631273
0.428500	1.635414
0.429000	1.633822
0.429500	1.630955
0.430000	1.633503
0.430500	1.632547
0.431000	1.631910
0.431500	1.633822
0.432000	1.630318
0.432500	1.632547
0.433000	1.635733
0.433500	1.633822
0.434000	1.630955
0.434500	1.633185
0.435000	1.632547
0.435500	1.632547
0.436000	1.633822
0.436500	1.630636
0.437000	1.631592
0.437500	1.635414
0.438000	1.633185
0.438500	1.631592
0.439000	1.633503
0.439500	1.632866
0.440000	1.633822
0.440500	1.633503
0.441000	1.629999
0.441500	1.631910
0.442000	1.635096
0.442500	1.632866
0.443000	1.632229
0.443500	1.634140
0.444000	1.632547
0.444500	1.635096
0.445000	1.633822
0.445500	1.630636
0.446000	1.632866
0.446500	1.634140
0.447000	1.633185
0.447500	1.632866
0.448000	1.633185
0.448500	1.632547
0.449000	1.635096
0.449500	1.633822
0.450000	1.630636
0.450500	1.631910
0.451000	1.634140
0.451500	1.632229
0.452000	1.633822
0.452500	1.633185
0.453000	1.630955
0.453500	1.635096
0.454000	1.633185
0.454500	1.630318
0.455000	1.632866
0.455500	1.633503
0.456000	1.631910
0.456500	1.632547
0.457000	1.632229
0.457500	1.632547
0.458000	1.635414
0.458500	1.633503
0.459000	1.630955
0.459500	1.633185
0.460000	1.633822
0.460500	1.631910
0.461000	1.633503
0.461500	1.631592
0.462000	1.631910
0.462500	1.635096
0.463000	1.632866
0.463500	1.629681
0.464000	1.632866
0.464500	1.632866
0.465000	1.632866
0.465500	1.633185
0.466000	1.631592
0.466500	1.630955
0.467000	1.635096
0.467500	1.633503
0.468000	1.631273
0.468500	1.633185
0.469000	1.633822
0.469500	1.632866
0.470000	1.633185
0.470500	1.630955
0.471000	1.630636
0.471500	1.635414
0.472000	1.632547
0.472500	1.631273
0.473000	1.633503
0.473500	1.632866
0.474000	1.632547
0.474500	1.633822
0.475000	1.631273
0.475500	1.631592
0.476000	1.634459
0.476500	1.632547
0.477000	1.632229
0.477500	1.633185
0.478000	1.631273
0.478500	1.633503
0.479000	1.632866
0.479500	1.629044
0.480000	1.631910
0.480500	1.633822
0.481000	1.631592
0.481500	1.632547
0.482000	1.633185
0.482500	1.632229
0.483000	1.634459
0.483500	1.633503
0.484000	1.629681
0.484500	1.631592
0.485000	1.634140
0.485500	1.632547
0.486000	1.632547
0.486500	1.632547
0.487000	1.631910
0.487500	1.635096
0.488000	1.633822
0.488500	1.630636
0.489000	1.632866
0.489500	1.632866
0.490000	1.632229
0.490500	1.633503
0.491000	1.631592
0.491500	1.631592
0.492000	1.635096
0.492500	1.632866
0.493000	1.630955
0.493500	1.633503
0.494000	1.632866
0.494500	1.632229
0.495000	1.633503
0.495500	1.629999
0.496000	1.632229
0.496500	1.635733
0.497000	1.631910
0.497500	1.631592
0.498000	1.633503
0.498500	1.632547
0.499000	1.633185
0.499500	1.633822
0.500000	1.630636
0.500500	1.632547
0.501000	1.635096
0.501500	1.632866
0.502000	1.631910
0.502500	1.633185
0.503000	1.632547
0.503500	1.633822
0.504000	1.632866
0.504500	1.630318
0.505000	1.631592
0.505500	1.634459
0.506000	1.632229
0.506500	1.633185
0.507000	1.633185
0.507500	1.632547
0.508000	1.635096
0.508500	1.633822
0.509000	1.631273
0.509500	1.632547
0.510000	1.634777
0.510500	1.632866
0.511000	1.633822
0.511500	1.632547
0.512000	1.631910
0.512500	1.634459
0.513000	1.633822
0.513500	1.630955
0.514000	1.633503
0.514500	1.633822
0.515000	1.632866
0.515500	1.632866
0.516000	1.631592
0.516500	1.631592
0.517000	1.636370
0.517500	1.633822
0.518000	1.631592
0.518500	1.634140
0.519000	1.633822
0.519500	1.632547
0.520000	1.633822
0.520500	1.631910
0.521000	1.632229
0.521500	1.635414
0.522000	1.633822
0.522500	1.633185
0.523000	1.633503
0.523500	1.632866
0.524000	1.633822
0.524500	1.633503
0.525000	1.629999
0.525500	1.632866
0.526000	1.635096
0.526500	1.632547
0.527000	1.633185
0.527500	1.633503
0.528000	1.632866
0.528500	1.634459
0.529000	1.634140
0.529500	1.630955
0.530000	1.632547
0.530500	1.635414
0.531000	1.632866
0.531500	1.633503
0.532000	1.633503
0.532500	1.632547
0.533000	1.635414
0.533500	1.633822
0.534000	1.630318
0.534500	1.633503
0.535000	1.633822
0.535500	1.632866
0.536000	1.633822
0.536500	1.633185
0.537000	1.633503
0.537500	1.635414
0.538000	1.633822
0.538500	1.631592
0.539000	1.633503
0.539500	1.633822
0.540000	1.633185
0.540500	1.633503
0.541000	1.632547
0.541500	1.631592
0.542000	1.635414
0.542500	1.633185
0.543000	1.631910
0.543500	1.633503
0.544000	1.632866
0.544500	1.632547
0.545000	1.633503
0.545500	1.631273
0.546000	1.631910
0.546500	1.635096
0.547000	1.632866
0.547500	1.631592
0.548000	1.633185
0.548500	1.633185
0.549000	1.633822
0.549500	1.633822
0.550000	1.629681
0.550500	1.632229
0.551000	1.634459
0.551500	1.632229
0.552000	1.632229
0.552500	1.633822
0.553000	1.632547
0.553500	1.634777
0.554000	1.633822
0.554500	1.629999
0.555000	1.631592
0.555500	1.633822
0.556000	1.631910
0.556500	1.632547
0.557000	1.633503
0.557500	1.631910
0.558000	1.634140
0.558500	1.633185
0.559000	1.628406
0.559500	1.632866
0.560000	1.633822
0.560500	1.631910
0.561000	1.632229
0.561500	1.631592
0.562000	1.631910
0.562500	1.634140
0.563000	1.633185
0.563500	1.629362
0.564000	1.632229
0.564500	1.632866
0.565000	1.630636
0.565500	1.632547
0.566000	1.630318
0.566500	1.631592
0.567000	1.634777
0.567500	1.632229
0.568000	1.630318
0.568500	1.632866
0.569000	1.632547
0.569500	1.632547
0.570000	1.632547
0.570500	1.629681
0.571000	1.631273
0.571500	1.634777
0.572000	1.631910
0.572500	1.630955
0.573000	1.633503
0.573500	1.631273
0.574000	1.632547
0.574500	1.632229
0.575000	1.629681
0.575500	1.631273
0.576000	1.633822
0.576500	1.631273
0.577000	1.632229
0.577500	1.632547
0.578000	1.630955
0.578500	1.633503
0.579000	1.632229
0.579500	1.629681
0.580000	1.631273
0.580500	1.633185
0.581000	1.631273
0.581500	1.631910
0.582000	1.632229
0.582500	1.631273
0.583000	1.634459
0.583500	1.632547
0.584000	1.629681
0.584500	1.632866
0.585000	1.631910
0.585500	1.632229
0.586000	1.632229
0.586500	1.631273
0.587000	1.631273
0.587500	1.634459
0.588000	1.632547
0.588500	1.630318
0.589000	1.632229
0.589500	1.632229
0.590000	1.632229
0.590500	1.631910
0.591000	1.630636
0.591500	1.631592
0.592000	1.635096
0.592500	1.631592
0.593000	1.630636
0.593500	1.633185
0.594000	1.631910
0.594500	1.632866
0.595000	1.633503
0.595500	1.629999
0.596000	1.631910
0.596500	1.634459
0.597000	1.631910
0.597500	1.632547
0.598000	1.632866
0.598500	1.632229
0.599000	1.634459
0.599500	1.633503
0.600000	1.629362
0.600500	1.632229
0.601000	1.633822
0.601500	1.632547
0.602000	1.632866
0.602500	1.631910
0.603000	1.631910
0.603500	1.635414
0.604000	1.632547
0.604500	1.630636
0.605000	1.632866
0.605500	1.633503
0.606000	1.631910
0.606500	1.633503
0.607000	1.630955
0.607500	1.631592
0.608000	1.634777
0.608500	1.632547
0.609000	1.631910
0.609500	1.633503
0.610000	1.632866
0.610500	1.633822
0.611000	1.633822
0.611500	1.629681
0.612000	1.631592
0.612500	1.635096
0.613000	1.632866
0.613500	1.632547
0.614000	1.633503
0.614500	1.632229
0.615000	1.634140
0.615500	1.633503
0.616000	1.630318
0.616500	1.632229
0.617000	1.634140
0.617500	1.632547
0.618000	1.632547
0.618500	1.632547
0.619000	1.631910
0.619500	1.635414
0.620000	1.634140
0.620500	1.629999
0.621000	1.633185
0.621500	1.633185
0.622000	1.632229
0.622500	1.633503
0.623000	1.632866
0.623500	1.631592
0.624000	1.634459
0.624500	1.633185
0.625000	1.630955
0.625500	1.633503
0.626000	1.632547
0.626500	1.633185
0.627000	1.633822
0.627500	1.630955
0.628000	1.632229
0.628500	1.635733
0.629000	1.633503
0.629500	1.632547
0.630000	1.633503
0.630500	1.632547
0.631000	1.633822
0.631500	1.633185
0.632000	1.629362
0.632500	1.632866
0.633000	1.634140
0.633500	1.631592
0.634000	1.633185
0.634500	1.632866
0.635000	1.632229
0.635500	1.635096
0.636000	1.633185
0.636500	1.629999
0.637000	1.631910
0.637500	1.633503
0.638000	1.632547
0.638500	1.633185
0.639000	1.632547
0.639500	1.630955
0.640000	1.635096
0.640500	1.633185
0.641000	1.629999
0.641500	1.632547
0.642000	1.633185
0.642500	1.632229
0.643000	1.632866
0.643500	1.630636
0.644000	1.632229
0.644500	1.635414
0.645000	1.632866
0.645500	1.630955
0.646000	1.633503
0.646500	1.632547
0.647000	1.632547
0.647500	1.633185
0.648000	1.630636
0.648500	1.631273
0.649000	1.635414
0.649500	1.633822
0.650000	1.631592
0.650500	1.632866
0.651000	1.631910
0.651500	1.633503
0.652000	1.633822
0.652500	1.630318
0.653000	1.631592
0.653500	1.634140
0.654000	1.632229
0.654500	1.632866
0.655000	1.632866
0.655500	1.631592
0.656000	1.634459
0.656500	1.633503
0.657000	1.628725
0.657500	1.632547
0.658000	1.633822
0.658500	1.632229
0.659000	1.633503
0.659500	1.631592
0.660000	1.631273
0.660500	1.635096
0.661000	1.633503
0.661500	1.630955
0.662000	1.632866
0.662500	1.632866
0.663000	1.632547
0.663500	1.632866
0.664000	1.630955
0.664500	1.631910
0.665000	1.635096
0.665500	1.633185
0.666000	1.631592
0.666500	1.633822
0.667000	1.631910
0.667500	1.633185
0.668000	1.633822
0.668500	1.630318
0.669000	1.631592
0.669500	1.634459
0.670000	1.633185
0.670500	1.632229
0.671000	1.633185
0.671500	1.632229
0.672000	1.633822
0.672500	1.632866
0.673000	1.629999
0.673500	1.631592
0.674000	1.634459
0.674500	1.631910
0.675000	1.632547
0.675500	1.633503
0.676000	1.631592
0.676500	1.634777
0.677000	1.633822
0.677500	1.630318
0.678000	1.632547
0.678500	1.633503
0.679000	1.632547
0.679500	1.633185
0.680000	1.632866
0.680500	1.631910
0.681000	1.634777
0.681500	1.633185
0.682000	1.630636
0.682500	1.633822
0.683000	1.633822
0.683500	1.631910
0.684000	1.633503
0.684500	1.631910
0.685000	1.632229
0.685500	1.636370
0.686000	1.633822
0.686500	1.631592
0.687000	1.634140
0.687500	1.632866
0.688000	1.632866
0.688500	1.633503
0.689000	1.630955
0.689500	1.632229
0.690000	1.636051
0.690500	1.633185
0.691000	1.631273
0.691500	1.634140
0.692000	1.632547
0.692500	1.633822
0.693000	1.634140
0.693500	1.630318
0.694000	1.631910
0.694500	1.635414
0.695000	1.633185
0.695500	1.632866
0.696000	1.633185
0.696500	1.632547
0.697000	1.633822
0.697500	1.633822
0.698000	1.630636
0.698500	1.632866
0.699000	1.633822
0.699500	1.632866
0.700000	1.632229
0.700500	1.632547
0.701000	1.631273
0.701500	1.634459
0.702000	1.633822
0.702500	1.629999
0.703000	1.633185
0.703500	1.633503
0.704000	1.632547
0.704500	1.632547
0.705000	1.632229
0.705500	1.631592
0.706000	1.635414
0.706500	1.632866
0.707000	1.630955
0.707500	1.633185
0.708000	1.633185
0.708500	1.632866
0.709000	1.633822
0.709500	1.629999
0.710000	1.631910
0.710500	1.634777
0.711000	1.632547
0.711500	1.631592
0.712000	1.632866
0.712500	1.632229
0.713000	1.633822
0.713500	1.633503
0.714000	1.629999
0.714500	1.631910
0.715000	1.634459
0.715500	1.631273
0.716000	1.632547
0.716500	1.632547
0.717000	1.632229
0.717500	1.634140
0.718000	1.633822
0.718500	1.629362
0.719000	1.632866
0.719500	1.634140
0.720000	1.632547
0.720500	1.633185
0.721000	1.631592
0.721500	1.631273
0.722000	1.634459
0.722500	1.632866
0.723000	1.629999
0.723500	1.632866
0.724000	1.633185
0.724500	1.632229
0.725000	1.633185
0.725500	1.633822
0.726000	1.631592
0.726500	1.635096
0.727000	1.633185
0.727500	1.630636
0.728000	1.632547
0.728500	1.632866
0.729000	1.632547
0.729500	1.633185
0.730000	1.630636
0.730500	1.631592
0.731000	1.635733
0.731500	1.632547
0.732000	1.630955
0.732500	1.633503
0.733000	1.633185
0.733500	1.633185
0.734000	1.633503
0.734500	1.629362
0.735000	1.632229
0.735500	1.633822
0.736000	1.632547
0.736500	1.633185
0.737000	1.632229
0.737500	1.631273
0.738000	1.634140
0.738500	1.633185
0.739000	1.629362
0.739500	1.633185
0.740000	1.632866
0.740500	1.632229
0.741000	1.632547
0.741500	1.631592
0.742000	1.630955
0.742500	1.634777
0.743000	1.632547
0.743500	1.629681
0.744000	1.632866
0.744500	1.633185
0.745000	1.631592
0.745500	1.615983
0.746000	1.630318
0.746500	1.630636
0.747000	1.635414
0.747500	1.633185
0.748000	1.631592
0.748500	1.632866
0.749000	1.631910
0.749500	1.633503
0.750000	1.634459
0.750500	1.629681
0.751000	1.631273
0.751500	1.634140
0.752000	1.632547
0.752500	1.631592
0.753000	1.633503
0.753500	1.632229
0.754000	1.633185
0.754500	1.633503
0.755000	1.629681
0.755500	1.631910
0.756000	1.634459
0.756500	1.632547
0.757000	1.632229
0.757500	1.632866
0.758000	1.631592
0.758500	1.633822
0.759000	1.633822
0.759500	1.629362
0.760000	1.632229
0.760500	1.633503
0.761000	1.632229
0.761500	1.633185
0.762000	1.630955
0.762500	1.631592
0.763000	1.635414
0.763500	1.632866
0.764000	1.630636
0.764500	1.633503
0.765000	1.631910
0.765500	1.631910
0.766000	1.632547
0.766500	1.630318
0.767000	1.631273
0.767500	1.634777
0.768000	1.632866
0.768500	1.631592
0.769000	1.633185
0.769500	1.632866
0.770000	1.632229
0.770500	1.633503
0.771000	1.630955
0.771500	1.630955
0.772000	1.635096
0.772500	1.632547
0.773000	1.631273
0.773500	1.633185
0.774000	1.631910
0.774500	1.633185
0.775000	1.633822
0.775500	1.629999
0.776000	1.632547
0.776500	1.634140
0.777000	1.631910
0.777500	1.632547
0.778000	1.632547
0.778500	1.632547
0.779000	1.633822
0.779500	1.633503
0.780000	1.629044
0.780500	1.632547
0.781000	1.633822
0.781500	1.631273
0.782000	1.632547
0.782500	1.631592
0.783000	1.631273
0.783500	1.635096
0.784000	1.633503
0.784500	1.629362
0.785000	1.632547
0.785500	1.632229
0.786000	1.631910
0.786500	1.631910
0.787000	1.630636
0.787500	1.630955
0.788000	1.635096
0.788500	1.632547
0.789000	1.630318
0.789500	1.632229
0.790000	1.631910
0.790500	1.632547
0.791000	1.632866
0.791500	1.630636
0.792000	1.630955
0.792500	1.634140
0.793000	1.631592
0.793500	1.631273
0.794000	1.633185
0.794500	1.631910
0.795000	1.633185
0.795500	1.633822
0.796000	1.628725
0.796500	1.630955
0.797000	1.633822
0.797500	1.632229
0.798000	1.631273
0.798500	1.632229
0.799000	1.631273
0.799500	1.633822
0.800000	1.632547
0.800500	1.629681
0.801000	1.632229
0.801500	1.633503
0.802000	1.630955
0.802500	1.632866
0.803000	1.631910
0.803500	1.631592
0.804000	1.634140
0.804500	1.633185
0.805000	1.629681
0.805500	1.631592
0.806000	1.633185
0.806500	1.631273
0.807000	1.632547
0.807500	1.631910
0.808000	1.630636
0.808500	1.635096
0.809000	1.632547
0.809500	1.630636
0.810000	1.632229
0.810500	1.633185
0.811000	1.631592
0.811500	1.632547
0.812000	1.631273
0.812500	1.631273
0.813000	1.634777
0.813500	1.632547
0.814000	1.630955
0.814500	1.632547
0.815000	1.632547
0.815500	1.631592
0.816000	1.632866
0.816500	1.630636
0.817000	1.631273
0.817500	1.635414
0.818000	1.633185
0.818500	1.631273
0.819000	1.633185
0.819500	1.633185
0.820000	1.632229
0.820500	1.633822
0.821000	1.629681
0.821500	1.631592
0.822000	1.635096
0.822500	1.632547
0.823000	1.631592
0.823500	1.633185
0.824000	1.632547
0.824500	1.633185
0.825000	1.633822
0.825500	1.629681
0.826000	1.631273
0.826500	1.634459
0.827000	1.632229
0.827500	1.632229
0.828000	1.632547
0.828500	1.632229
0.829000	1.633822
0.829500	1.633503
0.830000	1.630318
0.830500	1.631910
0.831000	1.634459
0.831500	1.631910
0.832000	1.632866
0.832500	1.632866
0.833000	1.631273
0.833500	1.634140
0.834000	1.633503
0.834500	1.629681
0.835000	1.632229
0.835500	1.633822
0.836000	1.631910
0.836500	1.633503
0.837000	1.631910
0.837500	1.631592
0.838000	1.634140
0.838500	1.632547
0.839000	1.630955
0.839500	1.632866
0.840000	1.633503
0.840500	1.632547
0.841000	1.633185
0.841500	1.630955
0.842000	1.632229
0.842500	1.635733
0.843000	1.633185
0.843500	1.631592
0.844000	1.633822
0.844500	1.632547
0.845000	1.633503
0.845500	1.633185
0.846000	1.629999
0.846500	1.631273
0.847000	1.635414
0.847500	1.632547
0.848000	1.630955
0.848500	1.633503
0.849000	1.631910
0.849500	1.633822
0.850000	1.633822
0.850500	1.629999
0.851000	1.631273
0.851500	1.635096
0.852000	1.632229
0.852500	1.631910
0.853000	1.633185
0.853500	1.632229
0.854000	1.632866
0.854500	1.633503
0.855000	1.629999
0.855500	1.631592
0.856000	1.633822
0.856500	1.631910
0.857000	1.631910
0.857500	1.632866
0.858000	1.631273
0.858500	1.634459
0.859000	1.633185
0.859500	1.629999
0.860000	1.632547
0.860500	1.632866
0.861000	1.632229
0.861500	1.632229
0.862000	1.632547
0.862500	1.631592
0.863000	1.634777
0.863500	1.633185
0.864000	1.629362
0.864500	1.633185
0.865000	1.633503
0.865500	1.631273
0.866000	1.632547
0.866500	1.631592
0.867000	1.631273
0.867500	1.635096
0.868000	1.632866
0.868500	1.629999
0.869000	1.633185
0.869500	1.632866
0.870000	1.632547
0.870500	1.633503
0.871000	1.630636
0.871500	1.631273
0.872000	1.634777
0.872500	1.632547
0.873000	1.630318
0.873500	1.632547
0.874000	1.631592
0.874500	1.632866
0.875000	1.632866
0.875500	1.629362
0.876000	1.631273
0.876500	1.634777
0.877000	1.631910
0.877500	1.631910
0.878000	1.632866
0.878500	1.630955
0.879000	1.633185
0.879500	1.633822
0.880000	1.629681
0.880500	1.631592
0.881000	1.633503
0.881500	1.631592
0.882000	1.631910
0.882500	1.631592
0.883000	1.630318
0.883500	1.634459
0.884000	1.633185
0.884500	1.629044
0.885000	1.630955
0.885500	1.632547
0.886000	1.630636
0.886500	1.631910
0.887000	1.631592
0.887500	1.631273
0.888000	1.634140
0.888500	1.633503
0.889000	1.630318
0.889500	1.631910
0.890000	1.631910
0.890500	1.630955
0.891000	1.631910
0.891500	1.630955
0.892000	1.631273
0.892500	1.635096
0.893000	1.633185
0.893500	1.629681
0.894000	1.632866
0.894500	1.631910
0.895000	1.631910
0.895500	1.633503
0.896000	1.630318
0.896500	1.631273
0.897000	1.634777
0.897500	1.632229
0.898000	1.630955
0.898500	1.633503
0.899000	1.632229
0.899500	1.632866
0.900000	1.633503
0.900500	1.629999
0.901000	1.631592
0.901500	1.634777
0.902000	1.632866
0.902500	1.631273
0.903000	1.633185
0.903500	1.632547
0.904000	1.633503
0.904500	1.633185
0.905000	1.631273
0.905500	1.632866
0.906000	1.635096
0.906500	1.632547
0.907000	1.632547
0.907500	1.634140
0.908000	1.632547
0.908500	1.634459
0.909000	1.633503
0.909500	1.629999
0.910000	1.633185
0.910500	1.634140
0.911000	1.632229
0.911500	1.632547
0.912000	1.633503
0.912500	1.632547
0.913000	1.634459
0.913500	1.633503
0.914000	1.630318
0.914500	1.632547
0.915000	1.633822
0.915500	1.632547
0.916000	1.633822
0.916500	1.633185
0.917000	1.631910
0.917500	1.635096
0.918000	1.633822
0.918500	1.630955
0.919000	1.632866
0.919500	1.633822
0.920000	1.632547
0.920500	1.632866
0.921000	1.632229
0.921500	1.632547
0.922000	1.635733
0.922500	1.633503
0.923000	1.631910
0.923500	1.634459
0.924000	1.633185
0.924500	1.632229
0.925000	1.633822
0.925500	1.632229
0.926000	1.631273
0.926500	1.635733
0.927000	1.633503
0.927500	1.631273
0.928000	1.633822
0.928500	1.633185
0.929000	1.632866
0.929500	1.633503
0.930000	1.631273
0.930500	1.631910
0.931000	1.634459
0.931500	1.633503
0.932000	1.631910
0.932500	1.633822
0.933000	1.632229
0.933500	1.632866
0.934000	1.633822
0.934500	1.630318
0.935000	1.632229
0.935500	1.635096
0.936000	1.631592
0.936500	1.631910
0.937000	1.633822
0.937500	1.631592
0.938000	1.633185
0.938500	1.634140
0.939000	1.629999
0.939500	1.632229
0.940000	1.634140
0.940500	1.632547
0.941000	1.631910
0.941500	1.633185
0.942000	1.632229
0.942500	1.634777
0.943000	1.633822
0.943500	1.629999
0.944000	1.633503
0.944500	1.633185
0.945000	1.632866
0.945500	1.632866
0.946000	1.630955
0.946500	1.632229
0.947000	1.635414
0.947500	1.633185
0.948000	1.630318
0.948500	1.631910
0.949000	1.632866
0.949500	1.632547
0.950000	1.632547
0.950500	1.630318
0.951000	1.632229
0.951500	1.635096
0.952000	1.631910
0.952500	1.630318
0.953000	1.633822
0.953500	1.633503
0.954000	1.632229
0.954500	1.633185
0.955000	1.631273
0.955500	1.631592
0.956000	1.635096
0.956500	1.632547
0.957000	1.632229
0.957500	1.632866
0.958000	1.632866
0.958500	1.633503
0.959000	1.633822
0.959500	1.630636
0.960000	1.632229
0.960500	1.634777
0.961000	1.632866
0.961500	1.631592
0.962000	1.632547
0.962500	1.632547
0.963000	1.633822
0.963500	1.633822
0.964000	1.630955
0.964500	1.632229
0.965000	1.634459
0.965500	1.633185
0.966000	1.631910
0.966500	1.632866
0.967000	1.632229
0.967500	1.634459
0.968000	1.633822
0.968500	1.629681
0.969000	1.632229
0.969500	1.634459
0.970000	1.632866
0.970500	1.632229
0.971000	1.633185
0.971500	1.631910
0.972000	1.634459
0.972500	1.634140
0.973000	1.630318
0.973500	1.632866
0.974000	1.633822
0.974500	1.632547
0.975000	1.632866
0.975500	1.633185
0.976000	1.632229
0.976500	1.635096
0.977000	1.633822
0.977500	1.630955
0.978000	1.633503
0.978500	1.633822
0.979000	1.632547
0.979500	1.633503
0.980000	1.631592
0.980500	1.631592
0.981000	1.635733
0.981500	1.633822
0.982000	1.631273
0.982500	1.633822
0.983000	1.633503
0.983500	1.633503
0.984000	1.633822
0.984500	1.631592
0.985000	1.632547
0.985500	1.636370
0.986000	1.633503
0.986500	1.631910
0.987000	1.633822
0.987500	1.633503
0.988000	1.634140
0.988500	1.634459
0.989000	1.630955
0.989500	1.632547
0.990000	1.635733
0.990500	1.633822
0.991000	1.633185
0.991500	1.633822
0.992000	1.633822
0.992500	1.633822
0.993000	1.634459
0.993500	1.631592
0.994000	1.633503
0.994500	1.635733
0.995000	1.633185
0.995500	1.632866
0.996000	1.634459
0.996500	1.632866
0.997000	1.635096
0.997500	1.634140
0.998000	1.630318
0.998500	1.633822
0.999000	1.635414
0.999500	1.632547
1.000000	1.633503
1.000500	1.633185
1.001000	1.632866
1.001500	1.635733
1.002000	1.634459
1.002500	1.630636
1.003000	1.634140
1.003500	1.634140
1.004000	1.632866
1.004500	1.634140
1.005000	1.632866
1.005500	1.632866
1.006000	1.636370
1.006500	1.633822
1.007000	1.631592
1.007500	1.633822
1.008000	1.633822
1.008500	1.632866
1.009000	1.633822
1.009500	1.632547
1.010000	1.631910
1.010500	1.636688
1.011000	1.633822
1.011500	1.632229
1.012000	1.633822
1.012500	1.633503
1.013000	1.633503
1.013500	1.633822
1.014000	1.631910
1.014500	1.632229
1.015000	1.635096
1.015500	1.633822
1.016000	1.632547
1.016500	1.634140
1.017000	1.632866
1.017500	1.633185
1.018000	1.634140
1.018500	1.629999
1.019000	1.632547
1.019500	1.635733
1.020000	1.633185
1.020500	1.631910
1.021000	1.633822
1.021500	1.633822
1.022000	1.634459
1.022500	1.634140
1.023000	1.630318
1.023500	1.632547
1.024000	1.635096
1.024500	1.632229
1.025000	1.632547
1.025500	1.633503
1.026000	1.631910
1.026500	1.635096
1.027000	1.633822
1.027500	1.629681
1.028000	1.633503
1.028500	1.634140
1.029000	1.632547
1.029500	1.632547
1.030000	1.633185
1.030500	1.632547
1.031000	1.635414
1.031500	1.633503
1.032000	1.629999
1.032500	1.633185
1.033000	1.633503
1.033500	1.632547
1.034000	1.633503
1.034500	1.631592
1.035000	1.631910
1.035500	1.635096
1.036000	1.633185
1.036500	1.630318
1.037000	1.633503
1.037500	1.633185
1.038000	1.633185
1.038500	1.633503
1.039000	1.631273
1.039500	1.631592
1.040000	1.635096
1.040500	1.633185
1.041000	1.631273
1.041500	1.632547
1.042000	1.632866
1.042500	1.632547
1.043000	1.633185
1.043500	1.630636
1.044000	1.631273
1.044500	1.635733
1.045000	1.633185
1.045500	1.632229
1.046000	1.633822
1.046500	1.632547
1.047000	1.633503
1.047500	1.634140
1.048000	1.630636
1.048500	1.632547
1.049000	1.634777
1.049500	1.633503
1.050000	1.632229
1.050500	1.633503
1.051000	1.633185
1.051500	1.633503
1.052000	1.634140
1.052500	1.629999
1.053000	1.632866
1.053500	1.634140
1.054000	1.632866
1.054500	1.633185
1.055000	1.633503
1.055500	1.632547
1.056000	1.633822
1.056500	1.634140
1.057000	1.630636
1.057500	1.633185
1.058000	1.634140
1.058500	1.632547
1.059000	1.632866
1.059500	1.632866
1.060000	1.631273
1.060500	1.636370
1.061000	1.634459
1.061500	1.630955
1.062000	1.633822
1.062500	1.633503
1.063000	1.633185
1.063500	1.633185
1.064000	1.632229
1.064500	1.633185
1.065000	1.636370
1.065500	1.633822
1.066000	1.631910
1.066500	1.633822
1.067000	1.633822
1.067500	1.634140
1.068000	1.634140
1.068500	1.631273
1.069000	1.632547
1.069500	1.635096
1.070000	1.633503
1.070500	1.632866
1.071000	1.633822
1.071500	1.633503
1.072000	1.634140
1.072500	1.633822
1.073000	1.631592
1.073500	1.632866
1.074000	1.635733
1.074500	1.633822
1.075000	1.632866
1.075500	1.634459
1.076000	1.633185
1.076500	1.634140
1.077000	1.633822
1.077500	1.631273
1.078000	1.632547
1.078500	1.635414
1.079000	1.632866
1.079500	1.632866
1.080000	1.633822
1.080500	1.632547
1.081000	1.635096
1.081500	1.633503
1.082000	1.629999
1.082500	1.633503
1.083000	1.634459
1.083500	1.633185
1.084000	1.633503
1.084500	1.632866
1.085000	1.632229
1.085500	1.635733
1.086000	1.633822
1.086500	1.630955
1.087000	1.633503
1.087500	1.633503
1.088000	1.633503
1.088500	1.633185
1.089000	1.632547
1.089500	1.631592
1.090000	1.635414
1.090500	1.633503
1.091000	1.631273
1.091500	1.633822
1.092000	1.634140
1.092500	1.633185
1.093000	1.633822
1.093500	1.630636
1.094000	1.631592
1.094500	1.635733
1.095000	1.633185
1.095500	1.631910
1.096000	1.633822
1.096500	1.633185
1.097000	1.633185
1.097500	1.633822
1.098000	1.630955
1.098500	1.634777
1.099000	1.635414
1.099500	1.632866
1.100000	1.632866
1.100500	1.633822
1.101000	1.632547
1.101500	1.633503
1.102000	1.633822
1.102500	1.630318
1.103000	1.632547
1.103500	1.634140
1.104000	1.632547
1.104500	1.632547
1.105000	1.633503
1.105500	1.632866
1.106000	1.634140
1.106500	1.633822
1.107000	1.629681
1.107500	1.632229
1.108000	1.634459
1.108500	1.632547
1.109000	1.632547
1.109500	1.632866
1.110000	1.632866
1.110500	1.635096
1.111000	1.633503
1.111500	1.629999
1.112000	1.633185
1.112500	1.633822
1.113000	1.631273
1.113500	1.633503
1.114000	1.631592
1.114500	1.631592
1.115000	1.635096
1.115500	1.632866
1.116000	1.630318
1.116500	1.632866
1.117000	1.632866
1.117500	1.632229
1.118000	1.633185
1.118500	1.632229
1.119000	1.632229
1.119500	1.635096
1.120000	1.633822
1.120500	1.630955
1.121000	1.632866
1.121500	1.632229
1.122000	1.632547
1.122500	1.633185
1.123000	1.631273
1.123500	1.631592
1.124000	1.635096
1.124500	1.633503
1.125000	1.631910
1.125500	1.633822
1.126000	1.632547
1.126500	1.633185
1.127000	1.633822
1.127500	1.630636
1.128000	1.631910
1.128500	1.634459
1.129000	1.632866
1.129500	1.632547
1.130000	1.633185
1.130500	1.632866
1.131000	1.633503
1.131500	1.634140
1.132000	1.629681
1.132500	1.632866
1.133000	1.635096
1.133500	1.632229
1.134000	1.632547
1.134500	1.633503
1.135000	1.631910
1.135500	1.634140
1.136000	1.633503
1.136500	1.629681
1.137000	1.632229
1.137500	1.635096
1.138000	1.631910
1.138500	1.631592
1.139000	1.632547
1.139500	1.631910
1.140000	1.635414
1.140500	1.633185
1.141000	1.630318
1.141500	1.632547
1.142000	1.633822
1.142500	1.632866
1.143000	1.633503
1.143500	1.632866
1.144000	1.631592
1.144500	1.636051
1.145000	1.633822
1.145500	1.630636
1.146000	1.633185
1.146500	1.633503
1.147000	1.632866
1.147500	1.633503
1.148000	1.632866
1.148500	1.631910
1.149000	1.636370
1.149500	1.633503
1.150000	1.630636
1.150500	1.633503
1.151000	1.633503
1.151500	1.633185
1.152000	1.633503
1.152500	1.632547
1.153000	1.632229
1.153500	1.635733
1.154000	1.633503
1.154500	1.632229
1.155000	1.633822
1.155500	1.633185
1.156000	1.632866
1.156500	1.634140
1.157000	1.631592
1.157500	1.631910
1.158000	1.635733
1.158500	1.632866
1.159000	1.631910
1.159500	1.633822
1.160000	1.633822
1.160500	1.633503
1.161000	1.633822
1.161500	1.631592
1.162000	1.631910
1.162500	1.636051
1.163000	1.632547
1.163500	1.632229
1.164000	1.633822
1.164500	1.632866
1.165000	1.633822
1.165500	1.633822
1.166000	1.630636
1.166500	1.632547
1.167000	1.634777
1.167500	1.633185
1.168000	1.632229
1.168500	1.634140
1.169000	1.632229
1.169500	1.634140
1.170000	1.633185
1.170500	1.629681
1.171000	1.632866
1.171500	1.635096
1.172000	1.632866
1.172500	1.632229
1.173000	1.633822
1.173500	1.631910
1.174000	1.634777
1.174500	1.633185
1.175000	1.630636
1.175500	1.632547
1.176000	1.634459
1.176500	1.632229
1.177000	1.632866
1.177500	1.633503
1.178000	1.631910
1.178500	1.634777
1.179000	1.634140
1.179500	1.629999
1.180000	1.632866
1.180500	1.633822
1.181000	1.631592
1.181500	1.632866
1.182000	1.632229
1.182500	1.632229
1.183000	1.635414
1.183500	1.633822
1.184000	1.630318
1.184500	1.632866
1.185000	1.633503
1.185500	1.632547
1.186000	1.633503
1.186500	1.632547
1.187000	1.631592
1.187500	1.634777
1.188000	1.633822
1.188500	1.630318
1.189000	1.633185
1.189500	1.633185
1.190000	1.632547
1.190500	1.632866
1.191000	1.631592
1.191500	1.632229
1.192000	1.635414
1.192500	1.633185
1.193000	1.631273
1.193500	1.633503
1.194000	1.632547
1.194500	1.631592
1.195000	1.633503
1.195500	1.630636
1.196000	1.631910
1.196500	1.635096
1.197000	1.633185
1.197500	1.630955
1.198000	1.633185
1.198500	1.633185
1.199000	1.632547
1.199500	1.633503
1.200000	1.630318
1.200500	1.632229
1.201000	1.635414
1.201500	1.633503
1.202000	1.632547
1.202500	1.633822
1.203000	1.631592
1.203500	1.633822
1.204000	1.634777
1.204500	1.630318
1.205000	1.631592
1.205500	1.635733
1.206000	1.632866
1.206500	1.631592
1.207000	1.632866
1.207500	1.631592
1.208000	1.633185
1.208500	1.633185
1.209000	1.630318
1.209500	1.632866
1.210000	1.634777
1.210500	1.632229
1.211000	1.631910
1.211500	1.633185
1.212000	1.632866
1.212500	1.634140
1.213000	1.632547
1.213500	1.629362
1.214000	1.632229
1.214500	1.634140
1.215000	1.632866
1.215500	1.632866
1.216000	1.632866
1.216500	1.632547
1.217000	1.634140
1.217500	1.633503
1.218000	1.630318
1.218500	1.633503
1.219000	1.633822
1.219500	1.631910
1.220000	1.632547
1.220500	1.633185
1.221000	1.631592
1.221500	1.634777
1.222000	1.633185
1.222500	1.630636
1.223000	1.632547
1.223500	1.633822
1.224000	1.632547
1.224500	1.632866
1.225000	1.632547
1.225500	1.630955
1.226000	1.636370
1.226500	1.633185
1.227000	1.630636
1.227500	1.633185
1.228000	1.632866
1.228500	1.632547
1.229000	1.633822
1.229500	1.631592
1.230000	1.631273
1.230500	1.635096
1.231000	1.633822
1.231500	1.630955
1.232000	1.633503
1.232500	1.632547
1.233000	1.631592
1.233500	1.633503
1.234000	1.631592
1.234500	1.631910
1.235000	1.636370
1.235500	1.632866
1.236000	1.631592
1.236500	1.633185
1.237000	1.632229
1.237500	1.632866
1.238000	1.632866
1.238500	1.629999
1.239000	1.631592
1.239500	1.634777
1.240000	1.633503
1.240500	1.632229
1.241000	1.632866
1.241500	1.631910
1.242000	1.632547
1.242500	1.633503
1.243000	1.629362
1.243500	1.632229
1.244000	1.635096
1.244500	1.632866
1.245000	1.632229
1.245500	1.633185
1.246000	1.632229
1.246500	1.634140
1.247000	1.632866
1.247500	1.629999
1.248000	1.632229
1.248500	1.633822
1.249000	1.632547
1.249500	1.632547
1.250000	1.632866
1.250500	1.632547
1.251000	1.633822
1.251500	1.632866
1.252000	1.629999
1.252500	1.633185
1.253000	1.633185
1.253500	1.631592
1.254000	1.633185
1.254500	1.631592
1.255000	1.631592
1.255500	1.635096
1.256000	1.633822
1.256500	1.630636
1.257000	1.633185
1.257500	1.633185
1.258000	1.631910
1.258500	1.633185
1.259000	1.631592
1.259500	1.632547
1.260000	1.635414
1.260500	1.631910
1.261000	1.630318
1.261500	1.633503
1.262000	1.632866
1.262500	1.631273
1.263000	1.632866
1.263500	1.630636
1.264000	1.630955
1.264500	1.634777
1.265000	1.633185
1.265500	1.630955
1.266000	1.633503
1.266500	1.632547
1.267000	1.632866
1.267500	1.633822
1.268000	1.629044
1.268500	1.632547
1.269000	1.635096
1.269500	1.632547
1.270000	1.632229
1.270500	1.633503
1.271000	1.632866
1.271500	1.633503
1.272000	1.633185
1.272500	1.629999
1.273000	1.632547
1.273500	1.633503
1.274000	1.631592
1.274500	1.630955
1.275000	1.632866
1.275500	1.630955
1.276000	1.633822
1.276500	1.632547
1.277000	1.629681
1.277500	1.632547
1.278000	1.634140
1.278500	1.631273
1.279000	1.632866
1.279500	1.633185
1.280000	1.631592
1.280500	1.634140
1.281000	1.633185
1.281500	1.630636
1.282000	1.632229
1.282500	1.633185
1.283000	1.632547
1.283500	1.632866
1.284000	1.631910
1.284500	1.631592
1.285000	1.635096
1.285500	1.633822
1.286000	1.630955
1.286500	1.632547
1.287000	1.632229
1.287500	1.632547
1.288000	1.633503
1.288500	1.631273
1.289000	1.630636
1.289500	1.635096
1.290000	1.632547
1.290500	1.630318
1.291000	1.632866
1.291500	1.632866
1.292000	1.632229
1.292500	1.633185
1.293000	1.630318
1.293500	1.632547
1.294000	1.634777
1.294500	1.632547
1.295000	1.631910
1.295500	1.633185
1.296000	1.633185
1.296500	1.633503
1.297000	1.632866
1.297500	1.629681
1.298000	1.631910
1.298500	1.634777
1.299000	1.632547
1.299500	1.633185
1.300000	1.632866
1.300500	1.631273
1.301000	1.633822
1.301500	1.632866
1.302000	1.629999
1.302500	1.631592
1.303000	1.634459
1.303500	1.631592
1.304000	1.632547
1.304500	1.632866
1.305000	1.632547
1.305500	1.634777
1.306000	1.633185
1.306500	1.630318
1.307000	1.632866
1.307500	1.633822
1.308000	1.631910
1.308500	1.633185
1.309000	1.631910
1.309500	1.632229
1.310000	1.635414
1.310500	1.633822
1.311000	1.630955
1.311500	1.632866
1.312000	1.633503
1.312500	1.633185
1.313000	1.633503
1.313500	1.631910
1.314000	1.631592
1.314500	1.634777
1.315000	1.632866
1.315500	1.631273
1.316000	1.633503
1.316500	1.632866
1.317000	1.633185
1.317500	1.633822
1.318000	1.630318
1.318500	1.632547
1.319000	1.635414
1.319500	1.633503
1.320000	1.631910
1.320500	1.633822
1.321000	1.631910
1.321500	1.633822
1.322000	1.633503
1.322500	1.629999
1.323000	1.631910
1.323500	1.634777
1.324000	1.632866
1.324500	1.632229
1.325000	1.632547
1.325500	1.632866
1.326000	1.634459
1.326500	1.634140
1.327000	1.629681
1.327500	1.632229
1.328000	1.634459
1.328500	1.632866
1.329000	1.632866
1.329500	1.632866
1.330000	1.631273
1.330500	1.635414
1.331000	1.634140
1.331500	1.629681
1.332000	1.633503
1.332500	1.634140
1.333000	1.631910
1.333500	1.632866
1.334000	1.632547
1.334500	1.631910
1.335000	1.635733
1.335500	1.633822
1.336000	1.629681
1.336500	1.632866
1.337000	1.633822
1.337500	1.632547
1.338000	1.632547
1.338500	1.632547
1.339000	1.632547
1.339500	1.634777
1.340000	1.633503
1.340500	1.629362
1.341000	1.632866
1.341500	1.633822
1.342000	1.632229
1.342500	1.633185
1.343000	1.632229
1.343500	1.632547
1.344000	1.634140
1.344500	1.633503
1.345000	1.630318
1.345500	1.632866
1.346000	1.633185
1.346500	1.632229
1.347000	1.633185
1.347500	1.632229
1.348000	1.630955
1.348500	1.635414
1.349000	1.633503
1.349500	1.631273
1.350000	1.632547
1.350500	1.632547
1.351000	1.632547
1.351500	1.632866
1.352000	1.631273
1.352500	1.632229
1.353000	1.635414
1.353500	1.633503
1.354000	1.631273
1.354500	1.633822
1.355000	1.633185
1.355500	1.632866
1.356000	1.633822
1.356500	1.630636
1.357000	1.632866
1.357500	1.635096
1.358000	1.632547
1.358500	1.632547
1.359000	1.633503
1.359500	1.633185
1.360000	1.633822
1.360500	1.634140
1.361000	1.630318
1.361500	1.631910
1.362000	1.634459
1.362500	1.632866
1.363000	1.632866
1.363500	1.632866
1.364000	1.631592
1.364500	1.634140
1.365000	1.633503
1.365500	1.630636
1.366000	1.632547
1.366500	1.633822
1.367000	1.632547
1.367500	1.633185
1.368000	1.632229
1.368500	1.631592
1.369000	1.634777
1.369500	1.633503
1.370000	1.630955
1.370500	1.633822
1.371000	1.633503
1.371500	1.632547
1.372000	1.633503
1.372500	1.631592
1.373000	1.631592
1.373500	1.635733
1.374000	1.633503
1.374500	1.631592
1.375000	1.633185
1.375500	1.633822
1.376000	1.633503
1.376500	1.633185
1.377000	1.630955
1.377500	1.632229
1.378000	1.636370
1.378500	1.633503
1.379000	1.631910
1.379500	1.633822
1.380000	1.633822
1.380500	1.633185
1.381000	1.633503
1.381500	1.630318
1.382000	1.631592
1.382500	1.635096
1.383000	1.632547
1.383500	1.631910
1.384000	1.632866
1.384500	1.633503
1.385000	1.633822
1.385500	1.634459
1.386000	1.630955
1.386500	1.632547
1.387000	1.635096
1.387500	1.632547
1.388000	1.633822
1.388500	1.634140
1.389000	1.632547
1.389500	1.634140
1.390000	1.634140
1.390500	1.629999
1.391000	1.632229
1.391500	1.634140
1.392000	1.632547
1.392500	1.633822
1.393000	1.633503
1.393500	1.632547
1.394000	1.634459
1.394500	1.633822
1.395000	1.630636
1.395500	1.633503
1.396000	1.634777
1.396500	1.633185
1.397000	1.633503
1.397500	1.633185
1.398000	1.632547
1.398500	1.635096
1.399000	1.634140
1.399500	1.630636
1.400000	1.633822
1.400500	1.633822
1.401000	1.632866
1.401500	1.633503
1.402000	1.633822
1.402500	1.631592
1.403000	1.635096
1.403500	1.634459
1.404000	1.630636
1.404500	1.633822
1.405000	1.635096
1.405500	1.632229
1.406000	1.634140
1.406500	1.633185
1.407000	1.632229
1.407500	1.634777
1.408000	1.633822
1.408500	1.631592
1.409000	1.633503
1.409500	1.633822
1.410000	1.632547
1.410500	1.633822
1.411000	1.632547
1.411500	1.632547
1.412000	1.636370
1.412500	1.633822
1.413000	1.631273
1.413500	1.633185
1.414000	1.633185
1.414500	1.632547
1.415000	1.633503
1.415500	1.631592
1.416000	1.631910
1.416500	1.635733
1.417000	1.633185
1.417500	1.631910
1.418000	1.633822
1.418500	1.633185
1.419000	1.633822
1.419500	1.633822
1.420000	1.630955
1.420500	1.632229
1.421000	1.634459
1.421500	1.632866
1.422000	1.631592
1.422500	1.633185
1.423000	1.632866
1.423500	1.633185
1.424000	1.633822
1.424500	1.629999
1.425000	1.632547
1.425500	1.635096
1.426000	1.632866
1.426500	1.632866
1.427000	1.633822
1.427500	1.631910
1.428000	1.634140
1.428500	1.633503
1.429000	1.630636
1.429500	1.633185
1.430000	1.634459
1.430500	1.633185
1.431000	1.633185
1.431500	1.633503
1.432000	1.632229
1.432500	1.634459
1.433000	1.633822
1.433500	1.630318
1.434000	1.632547
1.434500	1.634140
1.435000	1.632866
1.435500	1.632229
1.436000	1.632547
1.436500	1.632229
1.437000	1.635414
1.437500	1.633822
1.438000	1.629999
1.438500	1.634140
1.439000	1.633503
1.439500	1.632229
1.440000	1.633185
1.440500	1.631592
1.441000	1.632229
1.441500	1.635414
1.442000	1.634140
1.442500	1.631273
1.443000	1.633822
1.443500	1.632547
1.444000	1.632547
1.444500	1.633822
1.445000	1.632229
1.445500	1.632866
1.446000	1.635733
1.446500	1.634140
1.447000	1.631910
1.447500	1.633822
1.448000	1.633185
1.448500	1.633185
1.449000	1.633822
1.449500	1.630636
1.450000	1.632547
1.450500	1.635733
1.451000	1.633503
1.451500	1.632866
1.452000	1.634140
1.452500	1.632866
1.453000	1.632866
1.453500	1.634459
1.454000	1.631592
1.454500	1.633503
1.455000	1.635733
1.455500	1.633503
1.456000	1.633185
1.456500	1.634459
1.457000	1.633185
1.457500	1.634140
1.458000	1.634459
1.458500	1.630955
1.459000	1.633185
1.459500	1.634777
1.460000	1.632229
1.460500	1.633503
1.461000	1.633822
1.461500	1.633185
1.462000	1.635414
1.462500	1.634777
1.463000	1.630636
1.463500	1.633503
1.464000	1.634777
1.464500	1.633185
1.465000	1.633822
1.465500	1.633822
1.466000	1.633503
1.466500	1.635414
1.467000	1.635096
1.467500	1.630318
1.468000	1.633822
1.468500	1.634140
1.469000	1.633503
1.469500	1.634140
1.470000	1.632547
1.470500	1.632866
1.471000	1.635414
1.471500	1.634777
1.472000	1.630955
1.472500	1.633822
1.473000	1.634140
1.473500	1.633822
1.474000	1.634459
1.474500	1.632547
1.475000	1.633503
1.475500	1.636688
1.476000	1.634777
1.476500	1.631273
1.477000	1.634140
1.477500	1.632866
1.478000	1.633503
1.478500	1.634459
1.479000	1.631592
1.479500	1.632547
1.480000	1.636051
1.480500	1.634140
1.481000	1.632866
1.481500	1.634140
1.482000	1.633822
1.482500	1.633822
1.483000	1.635096
1.483500	1.630955
1.484000	1.632547
1.484500	1.635414
1.485000	1.633185
1.485500	1.632866
1.486000	1.634140
1.486500	1.633185
1.487000	1.633185
1.487500	1.634459
1.488000	1.630955
1.488500	1.633503
1.489000	1.635414
1.489500	1.632547
1.490000	1.633822
1.490500	1.634459
1.491000	1.633185
1.491500	1.634459
1.492000	1.634777
1.492500	1.631273
1.493000	1.633503
1.493500	1.634140
1.494000	1.632547
1.494500	1.633822
1.495000	1.633822
1.495500	1.631910
1.496000	1.635096
1.496500	1.634140
1.497000	1.630636
1.497500	1.633185
1.498000	1.634140
1.498500	1.632229
1.499000	1.633822
1.499500	1.633185
1.500000	1.632547
1.500500	1.635733
1.501000	1.633503
1.501500	1.630636
1.502000	1.633822
1.502500	1.633822
1.503000	1.632229
1.503500	1.633822
1.504000	1.632547
1.504500	1.632866
1.505000	1.636370
1.505500	1.633503
1.506000	1.630955
1.506500	1.633503
1.507000	1.633503
1.507500	1.632547
1.508000	1.633822
1.508500	1.630955
1.509000	1.631592
1.509500	1.636370
1.510000	1.633503
1.510500	1.631592
1.511000	1.633503
1.511500	1.632866
1.512000	1.632866
1.512500	1.633822
1.513000	1.630318
1.513500	1.632229
1.514000	1.635414
1.514500	1.633822
1.515000	1.632547
1.515500	1.634140
1.516000	1.632547
1.516500	1.634140
1.517000	1.633822
1.517500	1.631273
1.518000	1.633822
1.518500	1.635733
1.519000	1.633503
1.519500	1.633503
1.520000	1.633822
1.520500	1.632866
1.521000	1.634459
1.521500	1.633503
1.522000	1.630318
1.522500	1.632866
1.523000	1.634459
1.523500	1.632866
1.524000	1.633185
1.524500	1.633503
1.525000	1.631592
1.525500	1.635096
1.526000	1.633822
1.526500	1.630318
1.527000	1.633185
1.527500	1.633822
1.528000	1.633185
1.528500	1.633185
1.529000	1.632229
1.529500	1.631592
1.530000	1.635414
1.530500	1.633822
1.531000	1.631273
1.531500	1.631910
1.532000	1.634140
1.532500	1.632547
1.533000	1.633822
1.533500	1.632866
1.534000	1.632547
1.534500	1.635733
1.535000	1.633503
1.535500	1.631592
1.536000	1.633185
1.536500	1.633185
1.537000	1.632547
1.537500	1.633822
1.538000	1.632866
1.538500	1.632229
1.539000	1.635414
1.539500	1.634140
1.540000	1.631592
1.540500	1.633822
1.541000	1.633503
1.541500	1.632866
1.542000	1.634140
1.542500	1.632547
1.543000	1.632547
1.543500	1.636370
1.544000	1.633185
1.544500	1.632229
1.545000	1.634459
1.545500	1.633503
1.546000	1.633822
1.546500	1.634140
1.547000	1.631592
1.547500	1.632866
1.548000	1.635733
1.548500	1.633822
1.549000	1.632547
1.549500	1.634459
1.550000	1.633503
1.550500	1.633185
1.551000	1.633822
1.551500	1.630636
1.552000	1.633185
1.552500	1.635733
1.553000	1.633185
1.553500	1.633822
1.554000	1.634459
1.554500	1.633503
1.555000	1.634777
1.555500	1.634140
1.556000	1.629681
1.556500	1.633503
1.557000	1.635733
1.557500	1.632866
1.558000	1.633822
1.558500	1.634140
1.559000	1.632866
1.559500	1.635096
1.560000	1.633822
1.560500	1.630955
1.561000	1.632866
1.561500	1.634459
1.562000	1.632547
1.562500	1.633822
1.563000	1.633822
1.563500	1.632229
1.564000	1.634459
1.564500	1.634459
1.565000	1.630955
1.565500	1.633503
1.566000	1.634459
1.566500	1.633185
1.567000	1.633822
1.567500	1.633503
1.568000	1.632866
1.568500	1.635733
1.569000	1.634777
1.569500	1.630636
1.570000	1.632866
1.570500	1.634140
1.571000	1.632229
1.571500	1.634140
1.572000	1.632866
1.572500	1.632229
1.573000	1.635096
1.573500	1.633822
1.574000	1.630636
1.574500	1.632229
1.575000	1.633822
1.575500	1.632547
1.576000	1.632866
1.576500	1.633185
1.577000	1.631592
1.577500	1.634777
1.578000	1.633822
1.578500	1.631592
1.579000	1.633503
1.579500	1.633503
1.580000	1.632229
1.580500	1.633503
1.581000	1.632866
1.581500	1.632547
1.582000	1.636051
1.582500	1.633822
1.583000	1.631592
1.583500	1.633503
1.584000	1.633503
1.584500	1.632547
1.585000	1.633822
1.585500	1.630318
1.586000	1.630955
1.586500	1.635733
1.587000	1.633503
1.587500	1.631910
1.588000	1.633503
1.588500	1.632547
1.589000	1.633822
1.589500	1.633503
1.590000	1.630955
1.590500	1.631592
1.591000	1.635096
1.591500	1.632866
1.592000	1.631910
1.592500	1.633822
1.593000	1.632866
1.593500	1.633822
1.594000	1.633822
1.594500	1.629999
1.595000	1.631273
1.595500	1.635414
1.596000	1.632866
1.596500	1.632866
1.597000	1.633503
1.597500	1.631910
1.598000	1.633822
1.598500	1.633503
1.599000	1.629999
1.599500	1.632547
1.600000	1.634459
1.600500	1.632866
1.601000	1.632866
1.601500	1.632547
1.602000	1.631592
1.602500	1.634777
1.603000	1.633822
1.603500	1.629681
1.604000	1.632547
1.604500	1.633822
1.605000	1.632866
1.605500	1.633822
1.606000	1.632866
1.606500	1.631273
1.607000	1.634777
1.607500	1.633185
1.608000	1.630318
1.608500	1.632229
1.609000	1.633503
1.609500	1.631592
1.610000	1.632547
1.610500	1.632547
1.611000	1.631273
1.611500	1.634777
1.612000	1.632866
1.612500	1.629999
1.613000	1.632547
1.613500	1.633822
1.614000	1.631910
1.614500	1.633822
1.615000	1.631592
1.615500	1.631273
1.616000	1.635096
1.616500	1.633185
1.617000	1.630636
1.617500	1.633503
1.618000	1.633185
1.618500	1.632229
1.619000	1.633503
1.619500	1.631273
1.620000	1.631592
1.620500	1.635096
1.621000	1.633503
1.621500	1.630955
1.622000	1.633503
1.622500	1.633185
1.623000	1.632547
1.623500	1.634140
1.624000	1.630636
1.624500	1.631592
1.625000	1.635733
1.625500	1.633822
1.626000	1.631592
1.626500	1.633822
1.627000	1.633185
1.627500	1.633185
1.628000	1.633185
1.628500	1.630636
1.629000	1.631910
1.629500	1.635733
1.630000	1.632547
1.630500	1.631910
1.631000	1.633503
1.631500	1.632229
1.632000	1.633822
1.632500	1.634140
1.633000	1.629681
1.633500	1.631910
1.634000	1.633503
1.634500	1.631592
1.635000	1.632547
1.635500	1.633822
1.636000	1.633822
1.636500	1.634140
1.637000	1.633822
1.637500	1.630636
1.638000	1.632229
1.638500	1.634140
1.639000	1.632866
1.639500	1.633185
1.640000	1.633503
1.640500	1.632547
1.641000	1.634777
1.641500	1.633503
1.642000	1.630636
1.642500	1.632547
1.643000	1.633822
1.643500	1.632229
1.644000	1.632866
1.644500	1.632229
1.645000	1.632229
1.645500	1.635096
1.646000	1.633822
1.646500	1.630955
1.647000	1.633503
1.647500	1.634140
1.648000	1.632229
1.648500	1.633503
1.649000	1.631592
1.649500	1.632229
1.650000	1.634777
1.650500	1.633503
1.651000	1.630636
1.651500	1.633503
1.652000	1.633185
1.652500	1.632866
1.653000	1.633503
1.653500	1.631910
1.654000	1.631910
1.654500	1.635096
1.655000	1.633822
1.655500	1.631910
1.656000	1.633503
1.656500	1.632866
1.657000	1.632866
1.657500	1.634140
1.658000	1.630955
1.658500	1.632229
1.659000	1.636051
1.659500	1.633503
1.660000	1.631273
1.660500	1.633503
1.661000	1.632547
1.661500	1.632866
1.662000	1.633822
1.662500	1.629999
1.663000	1.631273
1.663500	1.635733
1.664000	1.632866
1.664500	1.632547
1.665000	1.633503
1.665500	1.632866
1.666000	1.633185
1.666500	1.633503
1.667000	1.630318
1.667500	1.631592
1.668000	1.635733
1.668500	1.632547
1.669000	1.632229
1.669500	1.632547
1.670000	1.632229
1.670500	1.633503
1.671000	1.633822
1.671500	1.630955
1.672000	1.632229
1.672500	1.634777
1.673000	1.632547
1.673500	1.632547
1.674000	1.633185
1.674500	1.632547
1.675000	1.633503
1.675500	1.633822
1.676000	1.630318
1.676500	1.631273
1.677000	1.635096
1.677500	1.632547
1.678000	1.632229
1.678500	1.632866
1.679000	1.632229
1.679500	1.633822
1.680000	1.633185
1.680500	1.629999
1.681000	1.631910
1.681500	1.634140
1.682000	1.632229
1.682500	1.632229
1.683000	1.632547
1.683500	1.631910
1.684000	1.634459
1.684500	1.633503
1.685000	1.630636
1.685500	1.631910
1.686000	1.634140
1.686500	1.631910
1.687000	1.632229
1.687500	1.632547
1.688000	1.631910
1.688500	1.634459
1.689000	1.633822
1.689500	1.629999
1.690000	1.632866
1.690500	1.633822
1.691000	1.631592
1.691500	1.631910
1.692000	1.632229
1.692500	1.630955
1.693000	1.634777
1.693500	1.633503
1.694000	1.630318
1.694500	1.632866
1.695000	1.632866
1.695500	1.632229
1.696000	1.633185
1.696500	1.631273
1.697000	1.631273
1.697500	1.635733
1.698000	1.633822
1.698500	1.631273
1.699000	1.632866
1.699500	1.633185
1.700000	1.631910
1.700500	1.634140
1.701000	1.632547
1.701500	1.631592
1.702000	1.635096
1.702500	1.631910
1.703000	1.630636
1.703500	1.633822
1.704000	1.631910
1.704500	1.633185
1.705000	1.633503
1.705500	1.630955
1.706000	1.632229
1.706500	1.636370
1.707000	1.633822
1.707500	1.630636
1.708000	1.633822
1.708500	1.633185
1.709000	1.632866
1.709500	1.633822
1.710000	1.630636
1.710500	1.631910
1.711000	1.635733
1.711500	1.633185
1.712000	1.632229
1.712500	1.634140
1.713000	1.633185
1.713500	1.633503
1.714000	1.633822
1.714500	1.631273
1.715000	1.631592
1.715500	1.635733
1.716000	1.633185
1.716500	1.631910
1.717000	1.633822
1.717500	1.633185
1.718000	1.633503
1.718500	1.634140
1.719000	1.630636
1.719500	1.632229
1.720000	1.635096
1.720500	1.633503
1.721000	1.631592
1.721500	1.634459
1.722000	1.632866
1.722500	1.633503
1.723000	1.634140
1.723500	1.630955
1.724000	1.632229
1.724500	1.636051
1.725000	1.633185
1.725500	1.632229
1.726000	1.633503
1.726500	1.633822
1.727000	1.633822
1.727500	1.634140
1.728000	1.630636
1.728500	1.632229
1.729000	1.635096
1.729500	1.633822
1.730000	1.632229
1.730500	1.633503
1.731000	1.633185
1.731500	1.633822
1.732000	1.633822
1.732500	1.629999
1.733000	1.633185
1.733500	1.634777
1.734000	1.632229
1.734500	1.632866
1.735000	1.633822
1.735500	1.631592
1.736000	1.634140
1.736500	1.634140
1.737000	1.629999
1.737500	1.632229
1.738000	1.635096
1.738500	1.632866
1.739000	1.632866
1.739500	1.632547
1.740000	1.632229
1.740500	1.634459
1.741000	1.633822
1.741500	1.629999
1.742000	1.632547
1.742500	1.633822
1.743000	1.633185
1.743500	1.633503
1.744000	1.632547
1.744500	1.632229
1.745000	1.634140
1.745500	1.633822
1.746000	1.630318
1.746500	1.633185
1.747000	1.633185
1.747500	1.632547
1.748000	1.632866
1.748500	1.632866
1.749000	1.631910
1.749500	1.635096
1.750000	1.632866
1.750500	1.629999
1.751000	1.633822
1.751500	1.633503
1.752000	1.632547
1.752500	1.633185
1.753000	1.631592
1.753500	1.631910
1.754000	1.635414
1.754500	1.633185
1.755000	1.630955
1.755500	1.633822
1.756000	1.632229
1.756500	1.632547
1.757000	1.633185
1.757500	1.630636
1.758000	1.632229
1.758500	1.635414
1.759000	1.633503
1.759500	1.630636
1.760000	1.633185
1.760500	1.632866
1.761000	1.632547
1.761500	1.634140
1.762000	1.630636
1.762500	1.631910
1.763000	1.634777
1.763500	1.632866
1.764000	1.631910
1.764500	1.632866
1.765000	1.631910
1.765500	1.633822
1.766000	1.634459
1.766500	1.630636
1.767000	1.631592
1.767500	1.635414
1.768000	1.632866
1.768500	1.631910
1.769000	1.633185
1.769500	1.631910
1.770000	1.633503
1.770500	1.633503
1.771000	1.629362
1.771500	1.632547
1.772000	1.634140
1.772500	1.631910
1.773000	1.631910
1.773500	1.632229
1.774000	1.631592
1.774500	1.633822
1.775000	1.633822
1.775500	1.629681
1.776000	1.631592
1.776500	1.634140
1.777000	1.631592
1.777500	1.632866
1.778000	1.632547
1.778500	1.630955
1.779000	1.634459
1.779500	1.633822
1.780000	1.629681
1.780500	1.632547
1.781000	1.633185
1.781500	1.631273
1.782000	1.633185
1.782500	1.631273
1.783000	1.631592
1.783500	1.634777
1.784000	1.633822
1.784500	1.629999
1.785000	1.632866
1.785500	1.632547
1.786000	1.632229
1.786500	1.633185
1.787000	1.630636
1.787500	1.631592
1.788000	1.635733
1.788500	1.633822
1.789000	1.631592
1.789500	1.633185
1.790000	1.632866
1.790500	1.633185
1.791000	1.633185
1.791500	1.630318
1.792000	1.631592
1.792500	1.635414
1.793000	1.632547
1.793500	1.632229
1.794000	1.633822
1.794500	1.632547
1.795000	1.632866
1.795500	1.633822
1.796000	1.629999
1.796500	1.631910
1.797000	1.635096
1.797500	1.632547
1.798000	1.632866
1.798500	1.633503
1.799000	1.632547
1.799500	1.633822
1.800000	1.633185
1.800500	1.629999
1.801000	1.632229
1.801500	1.635096
1.802000	1.632547
1.802500	1.632547
1.803000	1.633185
1.803500	1.631910
1.804000	1.634140
1.804500	1.633822
1.805000	1.629999
1.805500	1.632547
1.806000	1.634140
1.806500	1.632866
1.807000	1.632866
1.807500	1.632547
1.808000	1.631910
1.808500	1.635414
1.809000	1.633822
1.809500	1.629999
1.810000	1.633503
1.810500	1.632547
1.811000	1.632547
1.811500	1.632866
1.812000	1.631910
1.812500	1.631273
1.813000	1.635733
1.813500	1.633185
1.814000	1.630636
1.814500	1.633185
1.815000	1.632866
1.815500	1.631592
1.816000	1.633185
1.816500	1.630636
1.817000	1.631592
1.817500	1.634777
1.818000	1.633185
1.818500	1.631910
1.819000	1.633185
1.819500	1.632229
1.820000	1.632547
1.820500	1.633822
1.821000	1.630318
1.821500	1.631592
1.822000	1.634777
1.822500	1.633503
1.823000	1.632229
1.823500	1.633503
1.824000	1.631592
1.824500	1.633185
1.825000	1.633822
1.825500	1.629681
1.826000	1.631910
1.826500	1.634140
1.827000	1.630955
1.827500	1.631592
1.828000	1.632866
1.828500	1.631273
1.829000	1.634140
1.829500	1.633503
1.830000	1.629999
1.830500	1.631592
1.831000	1.634140
1.831500	1.632866
1.832000	1.632547
1.832500	1.633185
1.833000	1.631910
1.833500	1.634459
1.834000	1.633822
1.834500	1.628725
1.835000	1.632547
1.835500	1.634140
1.836000	1.631592
1.836500	1.632866
1.837000	1.632547
1.837500	1.631910
1.838000	1.635414
1.838500	1.633185
1.839000	1.629999
1.839500	1.633185
1.840000	1.632866
1.840500	1.632866
1.841000	1.632866
1.841500	1.630955
1.842000	1.631592
1.842500	1.635096
1.843000	1.632547
1.843500	1.630636
1.844000	1.632866
1.844500	1.633185
1.845000	1.631592
1.845500	1.633185
1.846000	1.629999
1.846500	1.631910
1.847000	1.635096
1.847500	1.631910
1.848000	1.631592
1.848500	1.633185
1.849000	1.633185
1.849500	1.632547
1.850000	1.633503
1.850500	1.629999
1.851000	1.631273
1.851500	1.634140
1.852000	1.632229
1.852500	1.632547
1.853000	1.632547
1.853500	1.631910
1.854000	1.633503
1.854500	1.633822
1.855000	1.629681
1.855500	1.631592
1.856000	1.633822
1.856500	1.631273
1.857000	1.632229
1.857500	1.632547
1.858000	1.631910
1.858500	1.634777
1.859000	1.633185
1.859500	1.629681
1.860000	1.632547
1.860500	1.633185
1.861000	1.632229
1.861500	1.632547
1.862000	1.632229
1.862500	1.631592
1.863000	1.634777
1.863500	1.633503
1.864000	1.629681
1.864500	1.632547
1.865000	1.632866
1.865500	1.631910
1.866000	1.632547
1.866500	1.631273
1.867000	1.631592
1.867500	1.634777
1.868000	1.633185
1.868500	1.630636
1.869000	1.632547
1.869500	1.632866
1.870000	1.632229
1.870500	1.632229
1.871000	1.630636
1.871500	1.631273
1.872000	1.635096
1.872500	1.633185
1.873000	1.632229
1.873500	1.632866
1.874000	1.631592
1.874500	1.632866
1.875000	1.632866
1.875500	1.629681
1.876000	1.631273
1.876500	1.634459
1.877000	1.632547
1.877500	1.632547
1.878000	1.633503
1.878500	1.631592
1.879000	1.633503
1.879500	1.633503
1.880000	1.630636
1.880500	1.630955
1.881000	1.634140
1.881500	1.632547
1.882000	1.632229
1.882500	1.631592
1.883000	1.631592
1.883500	1.634459
1.884000	1.633822
1.884500	1.629999
1.885000	1.632866
1.885500	1.633503
1.886000	1.631273
1.886500	1.633185
1.887000	1.631273
1.887500	1.631273
1.888000	1.635096
1.888500	1.633503
1.889000	1.629999
1.889500	1.633822
1.890000	1.632866
1.890500	1.632547
1.891000	1.632866
1.891500	1.631273
1.892000	1.631592
1.892500	1.635414
1.893000	1.632229
1.893500	1.630955
1.894000	1.632547
1.894500	1.632866
1.895000	1.632866
1.895500	1.634140
1.896000	1.630955
1.896500	1.631592
1.897000	1.634777
1.897500	1.632547
1.898000	1.631592
1.898500	1.633503
1.899000	1.631592
1.899500	1.633185
1.900000	1.633185
1.900500	1.629681
1.901000	1.632229
1.901500	1.634459
1.902000	1.631910
1.902500	1.632229
1.903000	1.631910
1.903500	1.631592
1.904000	1.634140
1.904500	1.632866
1.905000	1.628725
1.905500	1.633185
1.906000	1.633185
1.906500	1.631592
1.907000	1.633185
1.907500	1.631273
1.908000	1.630636
1.908500	1.635096
1.909000	1.632229
1.909500	1.630636
1.910000	1.631592
1.910500	1.632547
1.911000	1.632229
1.911500	1.632547
1.912000	1.630636
1.912500	1.630955
1.913000	1.634777
1.913500	1.632547
1.914000	1.630636
1.914500	1.632229
1.915000	1.631910
1.915500	1.632229
1.916000	1.633185
1.916500	1.630636
1.917000	1.630636
1.917500	1.634777
1.918000	1.632547
1.918500	1.630955
1.919000	1.632866
1.919500	1.632866
1.920000	1.632866
1.920500	1.632547
1.921000	1.629681
1.921500	1.631273
1.922000	1.634140
1.922500	1.631910
1.923000	1.631592
1.923500	1.633185
1.924000	1.631592
1.924500	1.635096
1.925000	1.632866
1.925500	1.629681
1.926000	1.631592
1.926500	1.634140
1.927000	1.632229
1.927500	1.631910
1.928000	1.632866
1.928500	1.631592
1.929000	1.633503
1.929500	1.633503
1.930000	1.629044
1.930500	1.631592
1.931000	1.633503
1.931500	1.631910
1.932000	1.631910
1.932500	1.631910
1.933000	1.630636
1.933500	1.634777
1.934000	1.633185
1.934500	1.630318
1.935000	1.632866
1.935500	1.633822
1.936000	1.631910
1.936500	1.632229
1.937000	1.630318
1.937500	1.631273
1.938000	1.635733
1.938500	1.632547
1.939000	1.630636
1.939500	1.633185
1.940000	1.633185
1.940500	1.632229
1.941000	1.633185
1.941500	1.630636
1.942000	1.631273
1.942500	1.634459
1.943000	1.633185
1.943500	1.632547
1.944000	1.633185
1.944500	1.631592
1.945000	1.633185
1.945500	1.633185
1.946000	1.629999
1.946500	1.631273
1.947000	1.635414
1.947500	1.632229
1.948000	1.631910
1.948500	1.633822
1.949000	1.631910
1.949500	1.633822
1.950000	1.632866
1.950500	1.629362
1.951000	1.631910
1.951500	1.633822
1.952000	1.631592
1.952500	1.632547
1.953000	1.632866
1.953500	1.631592
1.954000	1.633822
1.954500	1.633503
1.955000	1.628725
1.955500	1.632866
1.956000	1.632866
1.956500	1.631592
1.957000	1.631910
1.957500	1.631910
1.958000	1.631592
1.958500	1.633822
1.959000	1.632547
1.959500	1.629362
1.960000	1.632547
1.960500	1.632229
1.961000	1.631592
1.961500	1.632229
1.962000	1.631273
1.962500	1.630636
1.963000	1.634459
1.963500	1.632866
1.964000	1.630318
1.964500	1.632866
1.965000	1.633185
1.965500	1.631910
1.966000	1.632547
1.966500	1.630636
1.967000	1.631273
1.967500	1.633822
1.968000	1.631910
1.968500	1.629681
1.969000	1.632547
1.969500	1.631592
1.970000	1.631910
1.970500	1.631910
1.971000	1.629681
1.971500	1.631273
1.972000	1.633822
1.972500	1.631910
1.973000	1.630955
1.973500	1.632866
1.974000	1.631592
1.974500	1.633185
1.975000	1.632547
1.975500	1.629362
1.976000	1.631273
1.976500	1.633503
1.977000	1.631592
1.977500	1.631273
1.978000	1.632547
1.978500	1.630955
1.979000	1.633185
1.979500	1.632547
1.980000	1.629044
1.980500	1.631273
1.981000	1.632547
1.981500	1.631273
1.982000	1.631910
1.982500	1.631592
1.983000	1.630636
1.983500	1.634140
1.984000	1.632866
1.984500	1.628725
1.985000	1.631273
1.985500	1.631592
1.986000	1.630636
1.986500	1.632547
1.987000	1.629999
1.987500	1.630636
1.988000	1.634459
1.988500	1.632547
1.989000	1.629044
1.989500	1.631273
1.990000	1.631273
1.990500	1.630955
1.991000	1.631273
1.991500	1.629999
1.992000	1.631273
1.992500	1.634140
1.993000	1.631592
1.993500	1.630955
1.994000	1.632229
1.994500	1.630636
1.995000	1.631273
1.995500	1.631592
1.996000	1.629044
1.996500	1.629999
1.997000	1.633822
1.997500	1.631273
1.998000	1.631273
1.998500	1.632866
1.999000	1.631273
1.999500	1.632547
2.000000	1.632547
2.000500	1.629044
2.001000	1.631910
2.001500	1.633185
2.002000	1.631273
2.002500	1.630318
2.003000	1.632229
2.003500	1.630318
2.004000	1.634140
2.004500	1.632866
2.005000	1.628725
2.005500	1.631592
2.006000	1.633822
2.006500	1.630955
2.007000	1.631910
2.007500	1.630955
2.008000	1.630636
2.008500	1.633185
2.009000	1.633185
2.009500	1.629044
2.010000	1.631592
2.010500	1.632229
2.011000	1.630955
2.011500	1.632547
2.012000	1.630318
2.012500	1.631273
2.013000	1.634140
2.013500	1.631910
2.014000	1.629999
2.014500	1.632229
2.015000	1.632229
2.015500	1.631592
2.016000	1.632229
2.016500	1.630636
2.017000	1.631273
2.017500	1.634140
2.018000	1.632547
2.018500	1.630318
2.019000	1.632866
2.019500	1.631273
2.020000	1.633185
2.020500	1.632547
2.021000	1.629362
2.021500	1.630636
2.022000	1.633822
2.022500	1.631273
2.023000	1.631273
2.023500	1.631592
2.024000	1.631592
2.024500	1.632866
2.025000	1.633503
2.025500	1.629044
2.026000	1.631273
2.026500	1.634459
2.027000	1.631910
2.027500	1.631910
2.028000	1.632547
2.028500	1.631592
2.029000	1.634140
2.029500	1.632866
2.030000	1.629044
2.030500	1.632547
2.031000	1.633822
2.031500	1.631910
2.032000	1.631592
2.032500	1.631910
2.033000	1.631592
2.033500	1.635096
2.034000	1.633185
2.034500	1.629999
2.035000	1.632547
2.035500	1.632866
2.036000	1.631910
2.036500	1.632229
2.037000	1.631592
2.037500	1.630318
2.038000	1.634777
2.038500	1.632229
2.039000	1.630636
2.039500	1.632866
2.040000	1.631910
2.040500	1.631592
2.041000	1.633503
2.041500	1.629999
2.042000	1.630955
2.042500	1.634459
2.043000	1.631910
2.043500	1.631592
2.044000	1.633185
2.044500	1.632229
2.045000	1.633185
2.045500	1.633503
2.046000	1.630318
2.046500	1.631592
2.047000	1.634459
2.047500	1.631592
2.048000	1.631910
2.048500	1.633185
2.049000	1.631273
2.049500	1.633822
2.050000	1.633185
2.050500	1.629681
2.051000	1.632229
2.051500	1.633503
2.052000	1.631273
2.052500	1.632547
2.053000	1.631910
2.053500	1.630955
2.054000	1.634459
2.054500	1.632866
2.055000	1.630955
2.055500	1.631910
2.056000	1.633503
2.056500	1.631592
2.057000	1.633185
2.057500	1.631592
2.058000	1.630955
2.058500	1.635414
2.059000	1.632866
2.059500	1.629999
2.060000	1.632547
2.060500	1.632866
2.061000	1.631910
2.061500	1.633185
2.062000	1.629999
2.062500	1.631592
2.063000	1.634777
2.063500	1.632229
2.064000	1.630318
2.064500	1.632866
2.065000	1.631910
2.065500	1.633185
2.066000	1.632866
2.066500	1.629999
2.067000	1.631592
2.067500	1.634140
2.068000	1.632229
2.068500	1.631273
2.069000	1.632229
2.069500	1.631273
2.070000	1.632866
2.070500	1.633185
2.071000	1.629044
2.071500	1.632229
2.072000	1.633185
2.072500	1.631592
2.073000	1.631592
2.073500	1.631910
2.074000	1.630636
2.074500	1.633503
2.075000	1.632866
2.075500	1.629681
2.076000	1.632229
2.076500	1.632547
2.077000	1.631592
2.077500	1.632547
2.078000	1.631273
2.078500	1.631273
2.079000	1.635414
2.079500	1.632547
2.080000	1.629681
2.080500	1.631910
2.081000	1.631910
2.081500	1.632547
2.082000	1.632866
2.082500	1.630636
2.083000	1.630636
2.083500	1.634777
2.084000	1.631910
2.084500	1.630636
2.085000	1.633185
2.085500	1.631273
2.086000	1.631592
2.086500	1.633185
2.087000	1.629681
2.087500	1.631273
2.088000	1.633822
2.088500	1.631273
2.089000	1.631273
2.089500	1.632229
2.090000	1.631592
2.090500	1.633503
2.091000	1.632866
2.091500	1.629362
2.092000	1.631273
2.092500	1.633503
2.093000	1.631273
2.093500	1.631592
2.094000	1.631910
2.094500	1.631592
2.095000	1.634140
2.095500	1.632547
2.096000	1.629044
2.096500	1.631592
2.097000	1.633822
2.097500	1.630636
2.098000	1.632547
2.098500	1.631910
2.099000	1.631273
2.099500	1.633822
2.100000	1.632866
2.100500	1.629362
2.101000	1.632866
2.101500	1.632866
2.102000	1.630955
2.102500	1.632547
2.103000	1.630636
2.103500	1.630955
2.104000	1.634140
2.104500	1.632547
2.105000	1.629999
2.105500	1.632547
2.106000	1.631592
2.106500	1.632229
2.107000	1.632866
2.107500	1.629999
2.108000	1.630955
2.108500	1.635414
2.109000	1.632866
2.109500	1.630636
2.110000	1.633185
2.110500	1.632547
2.111000	1.634140
2.111500	1.632866
2.112000	1.629362
2.112500	1.631273
2.113000	1.634459
2.113500	1.631592
2.114000	1.631910
2.114500	1.633503
2.115000	1.630636
2.115500	1.633185
2.116000	1.633822
2.116500	1.629044
2.117000	1.631592
2.117500	1.633503
2.118000	1.631273
2.118500	1.632229
2.119000	1.632547
2.119500	1.631273
2.120000	1.633822
2.120500	1.633185
2.121000	1.629044
2.121500	1.632229
2.122000	1.632866
2.122500	1.630955
2.123000	1.632229
2.123500	1.631592
2.124000	1.631592
2.124500	1.633822
2.125000	1.633503
2.125500	1.629681
2.126000	1.632866
2.126500	1.632866
2.127000	1.631273
2.127500	1.633185
2.128000	1.631910
2.128500	1.631592
2.129000	1.635096
2.129500	1.633185
2.130000	1.629999
2.130500	1.632866
2.131000	1.631273
2.131500	1.631592
2.132000	1.632866
2.132500	1.630636
2.133000	1.632229
2.133500	1.634777
2.134000	1.632547
2.134500	1.630955
2.135000	1.632866
2.135500	1.632547
2.136000	1.631910
2.136500	1.632866
2.137000	1.629681
2.137500	1.631273
2.138000	1.635096
2.138500	1.631273
2.139000	1.630955
2.139500	1.631592
2.140000	1.631910
2.140500	1.632866
2.141000	1.632866
2.141500	1.629044
2.142000	1.631273
2.142500	1.634459
2.143000	1.631910
2.143500	1.631592
2.144000	1.633185
2.144500	1.631592
2.145000	1.633822
2.145500	1.633503
2.146000	1.629681
2.146500	1.631592
2.147000	1.633503
2.147500	1.631592
2.148000	1.632229
2.148500	1.631592
2.149000	1.631273
2.149500	1.634459
2.150000	1.632229
2.150500	1.629044
2.151000	1.630955
2.151500	1.632866
2.152000	1.630955
2.152500	1.632866
2.153000	1.629999
2.153500	1.630318
2.154000	1.634777
2.154500	1.632229
2.155000	1.629681
2.155500	1.632866
2.156000	1.631910
2.156500	1.631592
2.157000	1.632547
2.157500	1.630318
2.158000	1.631273
2.158500	1.634459
2.159000	1.631592
2.159500	1.629999
2.160000	1.631910
2.160500	1.631910
2.161000	1.631592
2.161500	1.632547
2.162000	1.629999
2.162500	1.630636
2.163000	1.634459
2.163500	1.630955
2.164000	1.630955
2.164500	1.632866
2.165000	1.631910
2.165500	1.632547
2.166000	1.632547
2.166500	1.628406
2.167000	1.631592
2.167500	1.633503
2.168000	1.631910
2.168500	1.632547
2.169000	1.633185
2.169500	1.630318
2.170000	1.633822
2.170500	1.631592
2.171000	1.627769
2.171500	1.631273
2.172000	1.633503
2.172500	1.631592
2.173000	1.631910
2.173500	1.631592
2.174000	1.630955
2.174500	1.633503
2.175000	1.633185
2.175500	1.629681
2.176000	1.632866
2.176500	1.632547
2.177000	1.631592
2.177500	1.632547
2.178000	1.631273
2.178500	1.630636
2.179000	1.635096
2.179500	1.632547
2.180000	1.629999
2.180500	1.631910
2.181000	1.632229
2.181500	1.632229
2.182000	1.631910
2.182500	1.630636
2.183000	1.630955
2.183500	1.635096
2.184000	1.632547
2.184500	1.630955
2.185000	1.633185
2.185500	1.631910
2.186000	1.632547
2.186500	1.633185
2.187000	1.629681
2.187500	1.632229
2.188000	1.634459
2.188500	1.632547
2.189000	1.632229
2.189500	1.632866
2.190000	1.631273
2.190500	1.633822
2.191000	1.633185
2.191500	1.629681
2.192000	1.632229
2.192500	1.633822
2.193000	1.631592
2.193500	1.632866
2.194000	1.632866
2.194500	1.631273
2.195000	1.634459
2.195500	1.633503
2.196000	1.629362
2.196500	1.631910
2.197000	1.633503
2.197500	1.632547
2.198000	1.633503
2.198500	1.632866
2.199000	1.631592
2.199500	1.634140
2.200000	1.633185
2.200500	1.629681
2.201000	1.632547
2.201500	1.633822
2.202000	1.631592
2.202500	1.633185
2.203000	1.631592
2.203500	1.632547
2.204000	1.634459
2.204500	1.633503
2.205000	1.630318
2.205500	1.632229
2.206000	1.632547
2.206500	1.631910
2.207000	1.632229
2.207500	1.631273
2.208000	1.631273
2.208500	1.635096
2.209000	1.633185
2.209500	1.629681
2.210000	1.633822
2.210500	1.631910
2.211000	1.631592
2.211500	1.633503
2.212000	1.629999
2.212500	1.631273
2.213000	1.634459
2.213500	1.632547
2.214000	1.631273
2.214500	1.633185
2.215000	1.632547
2.215500	1.632866
2.216000	1.633822
2.216500	1.629681
2.217000	1.631592
2.217500	1.634777
2.218000	1.631910
2.218500	1.630955
2.219000	1.632547
2.219500	1.631910
2.220000	1.633503
2.220500	1.633185
2.221000	1.629362
2.221500	1.631273
2.222000	1.634140
2.222500	1.631592
2.223000	1.632229
2.223500	1.631910
2.224000	1.631910
2.224500	1.633822
2.225000	1.632866
2.225500	1.629999
2.226000	1.631910
2.226500	1.633822
2.227000	1.631273
2.227500	1.631910
2.228000	1.632229
2.228500	1.631273
2.229000	1.635096
2.229500	1.633185
2.230000	1.629999
2.230500	1.632547
2.231000	1.633503
2.231500	1.632229
2.232000	1.632547
2.232500	1.630955
2.233000	1.631592
2.233500	1.635733
2.234000	1.633503
2.234500	1.630955
2.235000	1.632547
2.235500	1.632547
2.236000	1.632547
2.236500	1.633185
2.237000	1.630636
2.237500	1.631273
2.238000	1.635096
2.238500	1.632547
2.239000	1.630636
2.239500	1.633185
2.240000	1.631910
2.240500	1.632229
2.241000	1.633503
2.241500	1.630955
2.242000	1.630636
2.242500	1.635096
2.243000	1.633503
2.243500	1.631592
2.244000	1.632547
2.244500	1.632547
2.245000	1.632229
2.245500	1.633185
2.246000	1.629999
2.246500	1.631592
2.247000	1.634459
2.247500	1.632547
2.248000	1.631592
2.248500	1.633822
2.249000	1.632866
2.249500	1.632547
2.250000	1.634140
2.250500	1.629362
2.251000	1.633503
2.251500	1.634140
2.252000	1.632229
2.252500	1.631592
2.253000	1.632229
2.253500	1.631910
2.254000	1.633503
2.254500	1.633503
2.255000	1.629999
2.255500	1.631910
2.256000	1.633822
2.256500	1.631910
2.257000	1.633185
2.257500	1.632229
2.258000	1.630955
2.258500	1.634459
2.259000	1.633822
2.259500	1.629999
2.260000	1.632866
2.260500	1.632547
2.261000	1.631592
2.261500	1.632547
2.262000	1.631273
2.262500	1.630636
2.263000	1.635096
2.263500	1.632866
2.264000	1.630955
2.264500	1.632547
2.265000	1.632229
2.265500	1.631592
2.266000	1.632866
2.266500	1.630318
2.267000	1.631273
2.267500	1.635096
2.268000	1.633185
2.268500	1.629999
2.269000	1.632866
2.269500	1.631910
2.270000	1.631592
2.270500	1.632547
2.271000	1.630636
2.271500	1.630955
2.272000	1.633503
2.272500	1.631592
2.273000	1.630636
2.273500	1.631592
2.274000	1.631592
2.274500	1.633503
2.275000	1.633503
2.275500	1.629362
2.276000	1.630636
2.276500	1.633822
2.277000	1.630955
2.277500	1.632229
2.278000	1.633503
2.278500	1.630955
2.279000	1.633822
2.279500	1.633185
2.280000	1.629999
2.280500	1.631592
2.281000	1.633822
2.281500	1.631273
2.282000	1.631910
2.282500	1.631910
2.283000	1.631273
2.283500	1.634140
2.284000	1.633503
2.284500	1.628725
2.285000	1.630955
2.285500	1.634459
2.286000	1.631273
2.286500	1.632229
2.287000	1.632547
2.287500	1.631273
2.288000	1.633822
2.288500	1.632229
2.289000	1.629044
2.289500	1.630955
2.290000	1.633822
2.290500	1.631273
2.291000	1.632866
2.291500	1.631910
2.292000	1.631273
2.292500	1.633822
2.293000	1.632547
2.293500	1.628725
2.294000	1.631910
2.294500	1.633185
2.295000	1.631592
2.295500	1.632547
2.296000	1.630955
2.296500	1.631273
2.297000	1.633822
2.297500	1.632547
2.298000	1.629362
2.298500	1.632866
2.299000	1.631910
2.299500	1.632547
2.300000	1.632866
2.300500	1.631273
2.301000	1.631273
2.301500	1.635096
2.302000	1.632229
2.302500	1.630636
2.303000	1.631910
2.303500	1.631592
2.304000	1.631910
2.304500	1.632866
2.305000	1.629999
2.305500	1.631910
2.306000	1.635733
2.306500	1.632547
2.307000	1.630636
2.307500	1.632547
2.308000	1.632229
2.308500	1.632547
2.309000	1.633185
2.309500	1.629999
2.310000	1.631592
2.310500	1.634777
2.311000	1.631592
2.311500	1.632229
2.312000	1.632229
2.312500	1.631592
2.313000	1.633503
2.313500	1.633503
2.314000	1.629044
2.314500	1.631910
2.315000	1.634140
2.315500	1.632866
2.316000	1.632547
2.316500	1.632866
2.317000	1.632547
2.317500	1.633185
2.318000	1.633503
2.318500	1.629681
2.319000	1.631592
2.319500	1.633503
2.320000	1.631592
2.320500	1.632229
2.321000	1.631592
2.321500	1.631273
2.322000	1.634459
2.322500	1.632547
2.323000	1.629362
2.323500	1.631910
2.324000	1.633503
2.324500	1.631592
2.325000	1.632547
2.325500	1.631592
2.326000	1.631273
2.326500	1.634459
2.327000	1.632866
2.327500	1.629681
2.328000	1.632866
2.328500	1.632866
2.329000	1.631592
2.329500	1.633185
2.330000	1.631910
2.330500	1.631273
2.331000	1.634777
2.331500	1.632866
2.332000	1.629681
2.332500	1.632866
2.333000	1.632866
2.333500	1.631910
2.334000	1.632547
2.334500	1.631273
2.335000	1.631273
2.335500	1.634459
2.336000	1.632547
2.336500	1.631273
2.337000	1.632866
2.337500	1.631592
2.338000	1.632866
2.338500	1.632866
2.339000	1.630318
2.339500	1.630636
2.340000	1.635414
2.340500	1.631910
2.341000	1.631273
2.341500	1.631910
2.342000	1.631592
2.342500	1.633503
2.343000	1.633503
2.343500	1.629681
2.344000	1.631910
2.344500	1.634140
2.345000	1.632229
2.345500	1.632229
2.346000	1.632229
2.346500	1.631273
2.347000	1.634777
2.347500	1.632866
2.348000	1.629362
2.348500	1.631592
2.349000	1.633822
2.349500	1.631273
2.350000	1.632866
2.350500	1.631592
2.351000	1.631910
2.351500	1.635096
2.352000	1.634140
2.352500	1.630636
2.353000	1.631910
2.353500	1.632866
2.354000	1.631910
2.354500	1.633822
2.355000	1.630636
2.355500	1.631592
2.356000	1.635096
2.356500	1.633185
2.357000	1.630318
2.357500	1.632866
2.358000	1.633503
2.358500	1.632866
2.359000	1.633503
2.359500	1.629362
2.360000	1.631592
2.360500	1.635733
2.361000	1.632229
2.361500	1.632229
2.362000	1.633822
2.362500	1.632229
2.363000	1.633503
2.363500	1.634140
2.364000	1.629999
2.364500	1.631592
2.365000	1.634459
2.365500	1.632229
2.366000	1.632547
2.366500	1.633185
2.367000	1.630955
2.367500	1.634140
2.368000	1.633503
2.368500	1.629999
2.369000	1.632866
2.369500	1.633503
2.370000	1.631910
2.370500	1.633185
2.371000	1.632229
2.371500	1.631273
2.372000	1.634777
2.372500	1.633822
2.373000	1.630318
2.373500	1.631910
2.374000	1.633822
2.374500	1.631592
2.375000	1.633185
2.375500	1.631592
2.376000	1.631273
2.376500	1.635096
2.377000	1.633822
2.377500	1.630318
2.378000	1.633185
2.378500	1.633185
2.379000	1.632866
2.379500	1.633822
2.380000	1.630318
2.380500	1.631273
2.381000	1.636051
2.381500	1.632547
2.382000	1.632229
2.382500	1.633185
2.383000	1.632866
2.383500	1.632229
2.384000	1.633185
2.384500	1.629681
2.385000	1.631273
2.385500	1.634777
2.386000	1.631910
2.386500	1.632229
2.387000	1.633503
2.387500	1.632866
2.388000	1.634140
2.388500	1.633822
2.389000	1.629044
2.389500	1.632547
2.390000	1.633503
2.390500	1.632547
2.391000	1.632229
2.391500	1.632547
2.392000	1.631592
2.392500	1.635096
2.393000	1.633822
2.393500	1.629999
2.394000	1.632866
2.394500	1.633822
2.395000	1.631910
2.395500	1.632866
2.396000	1.631592
2.396500	1.631910
2.397000	1.634777
2.397500	1.633503
2.398000	1.630636
2.398500	1.632547
2.399000	1.632547
2.399500	1.631592
2.400000	1.633185
2.400500	1.630955
2.401000	1.631592
2.401500	1.635096
2.402000	1.633185
2.402500	1.631592
2.403000	1.632547
2.403500	1.632547
2.404000	1.632866
2.404500	1.632866
2.405000	1.630318
2.405500	1.631273
2.406000	1.635096
2.406500	1.632229
2.407000	1.631910
2.407500	1.633185
2.408000	1.631592
2.408500	1.633503
2.409000	1.633185
2.409500	1.629044
2.410000	1.631273
2.410500	1.633822
2.411000	1.632866
2.411500	1.631910
2.412000	1.632547
2.412500	1.631273
2.413000	1.633822
2.413500	1.632547
2.414000	1.629999
2.414500	1.632229
2.415000	1.633822
2.415500	1.631592
2.416000	1.632547
2.416500	1.631592
2.417000	1.631910
2.417500	1.634140
2.418000	1.633822
2.418500	1.629681
2.419000	1.632229
2.419500	1.632866
2.420000	1.631910
2.420500	1.632866
2.421000	1.630318
2.421500	1.631273
2.422000	1.635414
2.422500	1.633185
2.423000	1.630636
2.423500	1.632866
2.424000	1.632866
2.424500	1.632229
2.425000	1.633185
2.425500	1.630636
2.426000	1.631592
2.426500	1.634459
2.427000	1.632866
2.427500	1.631910
2.428000	1.633503
2.428500	1.631910
2.429000	1.633503
2.429500	1.633503
2.430000	1.630318
2.430500	1.632229
2.431000	1.634459
2.431500	1.632229
2.432000	1.631910
2.432500	1.633185
2.433000	1.632866
2.433500	1.633822
2.434000	1.633822
2.434500	1.629362
2.435000	1.632229
2.435500	1.633822
2.436000	1.631273
2.436500	1.632547
2.437000	1.632866
2.437500	1.631910
2.438000	1.634459
2.438500	1.632866
2.439000	1.630955
2.439500	1.632547
2.440000	1.633822
2.440500	1.631910
2.441000	1.632866
2.441500	1.631273
2.442000	1.631592
2.442500	1.635414
2.443000	1.633185
2.443500	1.629999
2.444000	1.633822
2.444500	1.633503
2.445000	1.633185
2.445500	1.633503
2.446000	1.629044
2.446500	1.631592
2.447000	1.635096
2.447500	1.632866
2.448000	1.631592
2.448500	1.633185
2.449000	1.631273
2.449500	1.633185
2.450000	1.633503
2.450500	1.629362
2.451000	1.631273
2.451500	1.634459
2.452000	1.631592
2.452500	1.632229
2.453000	1.632547
2.453500	1.631910
2.454000	1.633822
2.454500	1.633185
2.455000	1.628725
2.455500	1.632547
2.456000	1.633503
2.456500	1.631592
2.457000	1.632229
2.457500	1.631910
2.458000	1.631592
2.458500	1.634459
2.459000	1.632229
2.459500	1.629681
2.460000	1.632229
2.460500	1.631910
2.461000	1.631910
2.461500	1.632229
2.462000	1.630955
2.462500	1.631273
2.463000	1.634140
2.463500	1.632866
2.464000	1.630636
2.464500	1.632547
2.465000	1.632547
2.465500	1.631910
2.466000	1.633503
2.466500	1.629999
2.467000	1.631273
2.467500	1.634459
2.468000	1.632547
2.468500	1.631592
2.469000	1.632866
2.469500	1.631910
2.470000	1.632866
2.470500	1.633503
2.471000	1.629999
2.471500	1.631592
2.472000	1.634459
2.472500	1.632229
2.473000	1.632547
2.473500	1.632229
2.474000	1.632229
2.474500	1.633822
2.475000	1.632866
2.475500	1.629681
2.476000	1.632547
2.476500	1.633822
2.477000	1.631592
2.477500	1.631910
2.478000	1.632547
2.478500	1.631273
2.479000	1.634140
2.479500	1.632866
2.480000	1.629362
2.480500	1.631910
2.481000	1.632229
2.481500	1.631910
2.482000	1.632866
2.482500	1.631592
2.483000	1.631273
2.483500	1.635096
2.484000	1.632547
2.484500	1.630318
2.485000	1.631910
2.485500	1.633503
2.486000	1.631910
2.486500	1.633822
2.487000	1.630955
2.487500	1.631273
2.488000	1.634459
2.488500	1.632866
2.489000	1.630318
2.489500	1.632547
2.490000	1.632866
2.490500	1.632866
2.491000	1.632547
2.491500	1.630955
2.492000	1.631910
2.492500	1.634777
2.493000	1.632547
2.493500	1.630955
2.494000	1.632547
2.494500	1.631592
2.495000	1.632866
2.495500	1.633822
2.496000	1.629999
2.496500	1.631910
2.497000	1.634777
2.497500	1.631910
2.498000	1.632547
2.498500	1.632866
2.499000	1.631592
2.499500	1.633822
2.500000	1.632866
2.500500	1.629681
2.501000	1.631910
2.501500	1.633503
2.502000	1.631273
2.502500	1.631910
2.503000	1.632229
2.503500	1.631592
2.504000	1.635096
2.504500	1.633185
2.505000	1.629681
2.505500	1.632866
2.506000	1.633822
2.506500	1.631910
2.507000	1.632229
2.507500	1.631592
2.508000	1.631273
2.508500	1.635096
2.509000	1.633503
2.509500	1.630636
2.510000	1.632547
2.510500	1.632229
2.511000	1.631592
2.511500	1.632866
2.512000	1.631273
2.512500	1.631273
2.513000	1.634459
2.513500	1.632866
2.514000	1.631273
2.514500	1.633185
2.515000	1.632229
2.515500	1.632866
2.516000	1.632866
2.516500	1.629681
2.517000	1.631273
2.517500	1.635733
2.518000	1.631910
2.518500	1.631910
2.519000	1.633185
2.519500	1.632229
2.520000	1.633822
2.520500	1.633503
2.521000	1.629362
2.521500	1.631910
2.522000	1.635096
2.522500	1.631592
2.523000	1.632547
2.523500	1.632866
2.524000	1.635096
2.524500	1.634140
2.525000	1.633822
2.525500	1.629362
2.526000	1.632547
2.526500	1.634140
2.527000	1.632547
2.527500	1.633185
2.528000	1.632547
2.528500	1.631910
2.529000	1.634459
2.529500	1.633185
2.530000	1.629362
2.530500	1.632866
2.531000	1.633185
2.531500	1.632229
2.532000	1.633185
2.532500	1.630955
2.533000	1.630955
2.533500	1.635096
2.534000	1.632866
2.534500	1.631273
2.535000	1.633822
2.535500	1.632229
2.536000	1.633822
2.536500	1.633185
2.537000	1.629999
2.537500	1.631910
2.538000	1.635096
2.538500	1.632547
2.539000	1.631273
2.539500	1.632866
2.540000	1.631592
2.540500	1.633185
2.541000	1.633822
2.541500	1.629999
2.542000	1.631592
2.542500	1.633822
2.543000	1.631592
2.543500	1.632229
2.544000	1.633185
2.544500	1.631273
2.545000	1.634140
2.545500	1.632866
2.546000	1.629362
2.546500	1.631592
2.547000	1.632866
2.547500	1.631592
2.548000	1.631273
2.548500	1.632547
2.549000	1.631273
2.549500	1.634459
2.550000	1.632229
2.550500	1.629999
2.551000	1.631910
2.551500	1.632866
2.552000	1.631273
2.552500	1.631910
2.553000	1.630955
2.553500	1.629999
2.554000	1.634459
2.554500	1.632547
2.555000	1.630955
2.555500	1.632229
2.556000	1.631592
2.556500	1.632547
2.557000	1.633503
2.557500	1.629999
2.558000	1.631592
2.558500	1.634140
2.559000	1.631910
2.559500	1.631910
2.560000	1.632229
2.560500	1.631592
2.561000	1.633822
2.561500	1.633822
2.562000	1.628725
2.562500	1.631273
2.563000	1.633822
2.563500	1.631592
2.564000	1.632547
2.564500	1.632547
2.565000	1.630955
2.565500	1.634140
2.566000	1.632866
2.566500	1.629681
2.567000	1.632547
2.567500	1.633822
2.568000	1.631592
2.568500	1.632547
2.569000	1.631273
2.569500	1.631592
2.570000	1.634459
2.570500	1.632866
2.571000	1.629681
2.571500	1.633185
2.572000	1.632547
2.572500	1.631273
2.573000	1.633185
2.573500	1.631592
2.574000	1.631910
2.574500	1.634459
2.575000	1.632229
2.575500	1.631910
2.576000	1.632547
2.576500	1.632547
2.577000	1.632229
2.577500	1.632866
2.578000	1.629362
2.578500	1.631592
2.579000	1.635096
2.579500	1.632547
2.580000	1.631910
2.580500	1.633185
2.581000	1.632229
2.581500	1.633503
2.582000	1.633185
2.582500	1.629999
2.583000	1.631910
2.583500	1.634140
2.584000	1.631592
2.584500	1.632866
2.585000	1.632866
2.585500	1.631592
2.586000	1.634140
2.586500	1.633822
2.587000	1.630318
2.587500	1.631273
2.588000	1.633822
2.588500	1.632866
2.589000	1.632866
2.589500	1.632866
2.590000	1.631592
2.590500	1.634777
2.591000	1.633503
2.591500	1.629999
2.592000	1.633185
2.592500	1.633185
2.593000	1.632866
2.593500	1.633185
2.594000	1.631910
2.594500	1.630636
2.595000	1.635096
2.595500	1.633185
2.596000	1.631273
2.596500	1.633185
2.597000	1.633185
2.597500	1.631910
2.598000	1.633503
2.598500	1.630955
2.599000	1.631592
2.599500	1.635414
2.600000	1.633185
2.600500	1.632229
2.601000	1.633503
2.601500	1.631592
2.602000	1.632547
2.602500	1.633822
2.603000	1.629999
2.603500	1.631273
2.604000	1.635096
2.604500	1.631592
2.605000	1.631910
2.605500	1.633503
2.606000	1.632866
2.606500	1.633503
2.607000	1.633503
2.607500	1.629681
2.608000	1.632866
2.608500	1.634140
2.609000	1.631592
2.609500	1.631910
2.610000	1.633185
2.610500	1.631592
2.611000	1.634140
2.611500	1.632229
2.612000	1.629999
2.612500	1.633185
2.613000	1.629362
2.613500	1.631273
2.614000	1.632229
2.614500	1.631592
2.615000	1.631592
2.615500	1.634459
2.616000	1.632866
2.616500	1.629999
2.617000	1.632229
2.617500	1.633822
2.618000	1.631592
2.618500	1.631592
2.619000	1.630955
2.619500	1.631273
2.620000	1.634140
2.620500	1.632547
2.621000	1.629681
2.621500	1.633185
2.622000	1.632229
2.622500	1.631910
2.623000	1.633185
2.623500	1.630318
2.624000	1.631273
2.624500	1.634140
2.625000	1.632547
2.625500	1.630636
2.626000	1.632547
2.626500	1.630955
2.627000	1.632547
2.627500	1.633822
2.628000	1.629362
2.628500	1.630636
2.629000	1.634459
2.629500	1.631910
2.630000	1.631910
2.630500	1.632547
2.631000	1.631592
2.631500	1.632547
2.632000	1.631910
2.632500	1.628725
2.633000	1.631592
2.633500	1.633822
2.634000	1.631273
2.634500	1.631273
2.635000	1.631910
2.635500	1.631592
2.636000	1.633822
2.636500	1.632229
2.637000	1.629681
2.637500	1.631910
2.638000	1.632547
2.638500	1.631273
2.639000	1.632547
2.639500	1.631592
2.640000	1.630955
2.640500	1.633822
2.641000	1.632547
2.641500	1.629362
2.642000	1.632229
2.642500	1.631910
2.643000	1.630955
2.643500	1.631592
2.644000	1.631910
2.644500	1.631273
2.645000	1.635096
2.645500	1.632866
2.646000	1.629999
2.646500	1.632547
2.647000	1.632229
2.647500	1.632229
2.648000	1.632866
2.648500	1.630636
2.649000	1.630636
2.649500	1.634777
2.650000	1.632547
2.650500	1.630318
2.651000	1.633185
2.651500	1.632547
2.652000	1.632547
2.652500	1.633185
2.653000	1.629999
2.653500	1.630636
2.654000	1.635096
2.654500	1.630955
2.655000	1.632229
2.655500	1.633503
2.656000	1.631910
2.656500	1.634140
2.657000	1.633822
2.657500	1.629362
2.658000	1.632866
2.658500	1.634459
2.659000	1.631910
2.659500	1.632547
2.660000	1.632866
2.660500	1.631592
2.661000	1.635096
2.661500	1.633822
2.662000	1.629999
2.662500	1.632547
2.663000	1.633503
2.663500	1.631592
2.664000	1.633822
2.664500	1.632229
2.665000	1.631592
2.665500	1.635096
2.666000	1.633503
2.666500	1.630955
2.667000	1.632866
2.667500	1.632866
2.668000	1.632547
2.668500	1.633503
2.669000	1.630955
2.669500	1.631273
2.670000	1.634777
2.670500	1.632866
2.671000	1.632229
2.671500	1.633503
2.672000	1.632229
2.672500	1.633185
2.673000	1.633822
2.673500	1.630636
2.674000	1.631910
2.674500	1.635733
2.675000	1.633185
2.675500	1.632866
2.676000	1.633503
2.676500	1.631910
2.677000	1.633503
2.677500	1.633185
2.678000	1.629999
2.678500	1.632866
2.679000	1.634140
2.679500	1.632229
2.680000	1.631910
2.680500	1.633503
2.681000	1.631592
2.681500	1.633822
2.682000	1.633185
2.682500	1.629999
2.683000	1.631910
2.683500	1.633822
2.684000	1.631910
2.684500	1.633822
2.685000	1.632547
2.685500	1.631910
2.686000	1.635733
2.686500	1.633185
2.687000	1.630318
2.687500	1.632547
2.688000	1.633503
2.688500	1.633185
2.689000	1.634140
2.689500	1.631592
2.690000	1.631592
2.690500	1.635096
2.691000	1.633503
2.691500	1.630955
2.692000	1.633185
2.692500	1.631273
2.693000	1.632229
2.693500	1.632866
2.694000	1.630318
2.694500	1.632547
2.695000	1.634140
2.695500	1.632866
2.696000	1.631592
2.696500	1.633185
2.697000	1.632547
2.697500	1.633503
2.698000	1.634140
2.698500	1.629681
2.699000	1.632229
2.699500	1.633503
2.700000	1.631910
2.700500	1.631910
2.701000	1.632866
2.701500	1.631910
2.702000	1.633822
2.702500	1.633503
2.703000	1.630318
2.703500	1.632547
2.704000	1.633822
2.704500	1.631592
2.705000	1.632547
2.705500	1.632229
2.706000	1.631592
2.706500	1.634140
2.707000	1.633185
2.707500	1.629999
2.708000	1.632866
2.708500	1.632547
2.709000	1.631910
2.709500	1.632547
2.710000	1.630636
2.710500	1.631592
2.711000	1.635733
2.711500	1.632866
2.712000	1.629999
2.712500	1.632866
2.713000	1.632547
2.713500	1.632229
2.714000	1.632229
2.714500	1.630318
2.715000	1.630955
2.715500	1.634459
2.716000	1.631592
2.716500	1.631592
2.717000	1.632866
2.717500	1.631273
2.718000	1.632866
2.718500	1.632547
2.719000	1.629362
2.719500	1.631273
2.720000	1.633822
2.720500	1.631273
2.721000	1.630636
2.721500	1.632547
2.722000	1.631273
2.722500	1.633822
2.723000	1.632547
2.723500	1.629044
2.724000	1.630955
2.724500	1.633822
2.725000	1.630636
2.725500	1.632547
2.726000	1.631592
2.726500	1.630636
2.727000	1.633822
2.727500	1.632866
2.728000	1.629681
2.728500	1.631592
2.729000	1.633503
2.729500	1.630955
2.730000	1.631910
2.730500	1.630318
2.731000	1.630636
2.731500	1.634777
2.732000	1.632547
2.732500	1.630636
2.733000	1.631910
2.733500	1.632866
2.734000	1.631273
2.734500	1.632866
2.735000	1.630636
2.735500	1.631592
2.736000	1.634777
2.736500	1.632547
2.737000	1.630955
2.737500	1.633503
2.738000	1.632229
2.738500	1.632229
2.739000	1.633822
2.739500	1.629999
2.740000	1.631273
2.740500	1.635414
2.741000	1.631910
2.741500	1.631273
2.742000	1.632866
2.742500	1.631592
2.743000	1.632866
2.743500	1.632866
2.744000	1.629681
2.744500	1.631910
2.745000	1.634140
2.745500	1.631910
2.746000	1.632547
2.746500	1.632547
2.747000	1.632229
2.747500	1.634777
2.748000	1.632866
2.748500	1.629362
2.749000	1.632229
2.749500	1.634140
2.750000	1.632547
2.750500	1.632547
2.751000	1.632547
2.751500	1.630955
2.752000	1.634459
2.752500	1.633185
2.753000	1.630318
2.753500	1.633185
2.754000	1.633185
2.754500	1.631910
2.755000	1.633503
2.755500	1.631592
2.756000	1.631910
2.756500	1.635096
2.757000	1.632866
2.757500	1.630636
2.758000	1.633185
2.758500	1.631910
2.759000	1.632229
2.759500	1.633185
2.760000	1.630636
2.760500	1.632547
2.761000	1.634459
2.761500	1.632229
2.762000	1.631910
2.762500	1.632547
2.763000	1.632229
2.763500	1.633822
2.764000	1.633822
2.764500	1.629999
2.765000	1.632547
2.765500	1.633822
2.766000	1.631910
2.766500	1.632547
2.767000	1.632866
2.767500	1.631910
2.768000	1.633822
2.768500	1.632547
2.769000	1.629362
2.769500	1.631273
2.770000	1.632866
2.770500	1.632547
2.771000	1.631910
2.771500	1.631910
2.772000	1.630636
2.772500	1.634140
2.773000	1.633185
2.773500	1.629999
2.774000	1.632547
2.774500	1.633185
2.775000	1.631592
2.775500	1.632229
2.776000	1.631592
2.776500	1.630636
2.777000	1.635096
2.777500	1.632866
2.778000	1.630318
2.778500	1.633503
2.779000	1.632229
2.779500	1.631592
2.780000	1.633503
2.780500	1.629999
2.781000	1.631592
2.781500	1.634459
2.782000	1.632229
2.782500	1.630955
2.783000	1.631910
2.783500	1.632229
2.784000	1.631910
2.784500	1.632547
2.785000	1.629044
2.785500	1.631273
2.786000	1.633503
2.786500	1.631592
2.787000	1.631592
2.787500	1.631910
2.788000	1.630636
2.788500	1.633185
2.789000	1.632229
2.789500	1.628088
2.790000	1.632547
2.790500	1.633503
2.791000	1.630636
2.791500	1.631592
2.792000	1.631910
2.792500	1.629999
2.793000	1.634459
2.793500	1.632547
2.794000	1.628725
2.794500	1.632229
2.795000	1.631910
2.795500	1.631592
2.796000	1.632547
2.796500	1.629999
2.797000	1.631273
2.797500	1.634777
2.798000	1.632229
2.798500	1.630318
2.799000	1.631592
2.799500	1.631592
2.800000	1.630636
2.800500	1.631592
2.801000	1.629044
2.801500	1.630636
2.802000	1.633503
2.802500	1.631273
2.803000	1.630318
2.803500	1.632229
2.804000	1.631910
2.804500	1.632866
2.805000	1.632229
2.805500	1.628725
2.806000	1.631592
2.806500	1.633185
2.807000	1.630955
2.807500	1.630955
2.808000	1.631273
2.808500	1.630636
2.809000	1.633185
2.809500	1.631910
2.810000	1.627769
2.810500	1.631273
2.811000	1.633185
2.811500	1.631273
2.812000	1.630955
2.812500	1.631592
2.813000	1.630636
2.813500	1.633822
2.814000	1.632229
2.814500	1.629362
2.815000	1.631910
2.815500	1.632229
2.816000	1.630955
2.816500	1.631273
2.817000	1.629362
2.817500	1.631273
2.818000	1.634777
2.818500	1.631592
2.819000	1.629999
2.819500	1.632229
2.820000	1.631592
2.820500	1.630955
2.821000	1.632229
2.821500	1.629681
2.822000	1.630318
2.822500	1.634140
2.823000	1.631592
2.823500	1.630318
2.824000	1.631910
2.824500	1.630955
2.825000	1.631910
2.825500	1.632547
2.826000	1.628406
2.826500	1.630955
2.827000	1.633185
2.827500	1.630955
2.828000	1.630955
2.828500	1.631910
2.829000	1.630636
2.829500	1.633822
2.830000	1.633503
2.830500	1.629044
2.831000	1.632547
2.831500	1.633185
2.832000	1.631910
2.832500	1.631592
2.833000	1.631910
2.833500	1.631273
2.834000	1.633503
2.834500	1.632229
2.835000	1.629681
2.835500	1.631910
2.836000	1.632547
2.836500	1.631273
2.837000	1.633185
2.837500	1.631910
2.838000	1.630318
2.838500	1.634777
2.839000	1.632866
2.839500	1.629362
2.840000	1.631910
2.840500	1.632547
2.841000	1.632229
2.841500	1.632547
2.842000	1.630955
2.842500	1.630636
2.843000	1.634777
2.843500	1.632229
2.844000	1.629681
2.844500	1.631910
2.845000	1.632547
2.845500	1.631273
2.846000	1.632547
2.846500	1.629999
2.847000	1.631273
2.847500	1.634777
2.848000	1.632547
2.848500	1.631273
2.849000	1.632866
2.849500	1.631592
2.850000	1.633503
2.850500	1.632547
2.851000	1.629044
2.851500	1.631273
2.852000	1.633822
2.852500	1.631592
2.853000	1.631592
2.853500	1.632229
2.854000	1.631273
2.854500	1.634140
2.855000	1.633185
2.855500	1.629044
2.856000	1.632547
2.856500	1.633822
2.857000	1.631273
2.857500	1.631273
2.858000	1.632547
2.858500	1.630318
2.859000	1.633503
2.859500	1.633822
2.860000	1.629362
2.860500	1.632229
2.861000	1.632547
2.861500	1.631273
2.862000	1.632229
2.862500	1.631592
2.863000	1.631273
2.863500	1.634140
2.864000	1.632547
2.864500	1.629362
2.865000	1.632547
2.865500	1.632866
2.866000	1.631273
2.866500	1.632547
2.867000	1.629999
2.867500	1.630955
2.868000	1.633822
2.868500	1.631910
2.869000	1.630636
2.869500	1.632547
2.870000	1.631910
2.870500	1.631910
2.871000	1.632229
2.871500	1.630318
2.872000	1.630955
2.872500	1.634140
2.873000	1.631910
2.873500	1.630318
2.874000	1.632547
2.874500	1.630955
2.875000	1.632547
2.875500	1.632866
2.876000	1.629681
2.876500	1.631273
2.877000	1.634777
2.877500	1.631273
2.878000	1.631910
2.878500	1.631910
2.879000	1.630636
2.879500	1.633503
2.880000	1.633503
2.880500	1.628725
2.881000	1.631273
2.881500	1.633822
2.882000	1.631273
2.882500	1.631592
2.883000	1.631273
2.883500	1.631273
2.884000	1.634459
2.884500	1.632866
2.885000	1.628725
2.885500	1.631592
2.886000	1.632866
2.886500	1.630318
2.887000	1.631910
2.887500	1.630955
2.888000	1.630636
2.888500	1.634140
2.889000	1.632547
2.889500	1.629681
2.890000	1.630636
2.890500	1.633185
2.891000	1.630955
2.891500	1.632547
2.892000	1.631273
2.892500	1.629999
2.893000	1.634140
2.893500	1.631910
2.894000	1.629999
2.894500	1.631910
2.895000	1.633185
2.895500	1.631273
2.896000	1.632866
2.896500	1.629999
2.897000	1.633503
2.897500	1.634777
2.898000	1.631592
2.898500	1.630318
2.899000	1.632866
2.899500	1.631592
2.900000	1.631910
2.900500	1.632547
2.901000	1.630318
2.901500	1.630636
2.902000	1.633822
2.902500	1.631910
2.903000	1.631592
2.903500	1.633503
2.904000	1.632229
2.904500	1.633185
2.905000	1.632547
2.905500	1.629681
2.906000	1.631273
2.906500	1.635096
2.907000	1.631910
2.907500	1.631273
2.908000	1.632229
2.908500	1.631273
2.909000	1.632866
2.909500	1.632866
2.910000	1.629362
2.910500	1.630955
2.911000	1.634459
2.911500	1.631592
2.912000	1.631592
2.912500	1.631592
2.913000	1.630955
2.913500	1.633185
2.914000	1.632547
2.914500	1.629681
2.915000	1.631273
2.915500	1.633822
2.916000	1.632229
2.916500	1.632229
2.917000	1.631592
2.917500	1.631273
2.918000	1.634140
2.918500	1.632229
2.919000	1.628725
2.919500	1.631592
2.920000	1.632866
2.920500	1.631273
2.921000	1.631910
2.921500	1.630955
2.922000	1.631273
2.922500	1.634777
2.923000	1.632547
2.923500	1.629362
2.924000	1.631592
2.924500	1.633185
2.925000	1.631273
2.925500	1.632547
2.926000	1.631273
2.926500	1.631273
2.927000	1.634140
2.927500	1.631910
2.928000	1.629044
2.928500	1.631910
2.929000	1.631910
2.929500	1.631273
2.930000	1.631910
2.930500	1.631273
2.931000	1.631273
2.931500	1.634777
2.932000	1.633185
2.932500	1.629999
2.933000	1.632547
2.933500	1.632229
2.934000	1.631273
2.934500	1.633185
2.935000	1.630636
2.935500	1.630955
2.936000	1.635096
2.936500	1.632547
2.937000	1.629681
2.937500	1.633185
2.938000	1.631910
2.938500	1.631592
2.939000	1.633503
2.939500	1.628725
2.940000	1.630636
2.940500	1.634459
2.941000	1.632547
2.941500	1.631910
2.942000	1.632229
2.942500	1.631910
2.943000	1.632547
2.943500	1.632229
2.944000	1.629044
2.944500	1.631273
2.945000	1.633822
2.945500	1.631592
2.946000	1.631592
2.946500	1.631910
2.947000	1.632229
2.947500	1.632547
2.948000	1.632866
2.948500	1.629044
2.949000	1.631910
2.949500	1.634140
2.950000	1.631592
2.950500	1.630955
2.951000	1.631592
2.951500	1.630318
2.952000	1.633503
2.952500	1.632547
2.953000	1.629362
2.953500	1.632547
2.954000	1.632866
2.954500	1.631273
2.955000	1.631910
2.955500	1.632229
2.956000	1.630318
2.956500	1.633822
2.957000	1.631910
2.957500	1.628406
2.958000	1.632866
2.958500	1.631592
2.959000	1.631273
2.959500	1.631273
2.960000	1.631592
2.960500	1.630636
2.961000	1.634459
2.961500	1.632547
2.962000	1.629044
2.962500	1.631592
2.963000	1.631910
2.963500	1.631273
2.964000	1.632866
2.964500	1.630318
2.965000	1.630636
2.965500	1.634140
2.966000	1.632229
2.966500	1.631273
2.967000	1.631910
2.967500	1.631910
2.968000	1.631910
2.968500	1.632547
2.969000	1.628725
2.969500	1.630636
2.970000	1.633503
2.970500	1.631910
2.971000	1.631273
2.971500	1.631592
2.972000	1.631592
2.972500	1.632866
2.973000	1.631910
2.973500	1.628725
2.974000	1.630636
2.974500	1.633822
2.975000	1.630955
2.975500	1.631592
2.976000	1.631592
2.976500	1.631273
2.977000	1.633503
2.977500	1.632547
2.978000	1.629044
2.978500	1.631592
2.979000	1.633822
2.979500	1.630636
2.980000	1.631592
2.980500	1.632547
2.981000	1.630318
2.981500	1.633185
2.982000	1.633185
2.982500	1.629362
2.983000	1.631273
2.983500	1.632866
2.984000	1.631273
2.984500	1.632547
2.985000	1.631910
2.985500	1.631273
2.986000	1.634140
2.986500	1.633185
2.987000	1.629681
2.987500	1.631273
2.988000	1.632547
2.988500	1.631273
2.989000	1.632866
2.989500	1.630318
2.990000	1.631592
2.990500	1.634459
2.991000	1.632866
2.991500	1.629999
2.992000	1.632866
2.992500	1.633185
2.993000	1.631592
2.993500	1.633185
2.994000	1.630955
2.994500	1.630955
2.995000	1.635096
2.995500	1.633185
2.996000	1.630955
2.996500	1.633185
2.997000	1.632229
2.997500	1.631592
2.998000	1.633185
2.998500	1.630318
2.999000	1.632229
2.999500	1.633822
3.000000	1.632229
3.000500	1.631592
3.001000	1.632547
3.001500	1.630955
3.002000	1.631592
3.002500	1.633185
3.003000	1.629044
3.003500	1.631592
3.004000	1.635096
3.004500	1.631273
3.005000	1.631273
3.005500	1.631910
3.006000	1.632547
3.006500	1.632866
3.007000	1.633185
3.007500	1.628088
3.008000	1.631273
3.008500	1.633822
3.009000	1.631273
3.009500	1.630636
3.010000	1.630955
3.010500	1.630636
3.011000	1.633503
3.011500	1.632229
3.012000	1.628406
3.012500	1.631592
3.013000	1.632547
3.013500	1.630318
3.014000	1.631273
3.014500	1.631273
3.015000	1.630636
3.015500	1.633185
3.016000	1.631910
3.016500	1.628088
3.017000	1.631273
3.017500	1.631910
3.018000	1.631273
3.018500	1.631592
3.019000	1.630636
3.019500	1.629362
3.020000	1.633503
3.020500	1.632229
3.021000	1.629044
3.021500	1.630955
3.022000	1.631910
3.022500	1.630955
3.023000	1.631592
3.023500	1.630318
3.024000	1.630636
3.024500	1.634459
3.025000	1.631592
3.025500	1.629681
3.026000	1.631910
3.026500	1.630955
3.027000	1.630636
3.027500	1.631910
3.028000	1.628725
3.028500	1.630318
3.029000	1.633822
3.029500	1.631592
3.030000	1.630318
3.030500	1.632547
3.031000	1.630955
3.031500	1.632229
3.032000	1.631273
3.032500	1.628725
3.033000	1.630955
3.033500	1.633185
3.034000	1.631910
3.034500	1.629999
3.035000	1.632547
3.035500	1.630636
3.036000	1.631910
3.036500	1.631910
3.037000	1.628406
3.037500	1.629999
3.038000	1.633185
3.038500	1.631592
3.039000	1.630636
3.039500	1.631592
3.040000	1.630636
3.040500	1.632547
3.041000	1.631910
3.041500	1.628725
3.042000	1.631273
3.042500	1.633822
3.043000	1.631273
3.043500	1.631273
3.044000	1.631910
3.044500	1.630318
3.045000	1.633185
3.045500	1.632229
3.046000	1.628725
3.046500	1.630636
3.047000	1.631910
3.047500	1.630955
3.048000	1.631910
3.048500	1.630955
3.049000	1.630318
3.049500	1.634459
3.050000	1.632547
3.050500	1.629044
3.051000	1.631273
3.051500	1.632229
3.052000	1.630955
3.052500	1.632547
3.053000	1.631273
3.053500	1.630636
3.054000	1.634140
3.054500	1.632866
3.055000	1.629999
3.055500	1.631273
3.056000	1.631910
3.056500	1.630636
3.057000	1.632866
3.057500	1.630636
3.058000	1.630318
3.058500	1.634140
3.059000	1.632229
3.059500	1.630636
3.060000	1.631910
3.060500	1.631273
3.061000	1.632229
3.061500	1.633503
3.062000	1.630318
3.062500	1.630636
3.063000	1.634140
3.063500	1.631592
3.064000	1.631273
3.064500	1.632547
3.065000	1.630955
3.065500	1.632866
3.066000	1.632229
3.066500	1.629681
3.067000	1.630955
3.067500	1.633822
3.068000	1.632547
3.068500	1.632547
3.069000	1.632547
3.069500	1.631273
3.070000	1.632866
3.070500	1.632547
3.071000	1.629044
3.071500	1.631910
3.072000	1.633822
3.072500	1.631910
3.073000	1.632547
3.073500	1.632547
3.074000	1.632547
3.074500	1.633822
3.075000	1.633503
3.075500	1.629681
3.076000	1.632547
3.076500	1.633822
3.077000	1.631273
3.077500	1.632547
3.078000	1.632547
3.078500	1.632229
3.079000	1.634459
3.079500	1.633185
3.080000	1.629999
3.080500	1.632866
3.081000	1.633822
3.081500	1.632547
3.082000	1.632866
3.082500	1.631910
3.083000	1.631592
3.083500	1.635096
3.084000	1.633503
3.084500	1.630636
3.085000	1.633185
3.085500	1.633503
3.086000	1.632547
3.086500	1.633185
3.087000	1.630955
3.087500	1.631592
3.088000	1.635414
3.088500	1.633503
3.089000	1.631273
3.089500	1.633503
3.090000	1.633185
3.090500	1.631273
3.091000	1.633503
3.091500	1.630636
3.092000	1.631910
3.092500	1.634459
3.093000	1.632866
3.093500	1.632229
3.094000	1.634140
3.094500	1.632547
3.095000	1.633185
3.095500	1.633822
3.096000	1.630318
3.096500	1.631273
3.097000	1.635096
3.097500	1.631592
3.098000	1.632866
3.098500	1.633822
3.099000	1.631273
3.099500	1.633185
3.100000	1.632866
3.100500	1.629362
3.101000	1.632229
3.101500	1.634140
3.102000	1.631592
3.102500	1.631910
3.103000	1.633185
3.103500	1.630318
3.104000	1.633822
3.104500	1.633503
3.105000	1.629999
3.105500	1.632866
3.106000	1.633822
3.106500	1.632229
3.107000	1.632547
3.107500	1.632547
3.108000	1.631592
3.108500	1.634777
3.109000	1.633185
3.109500	1.629681
3.110000	1.632547
3.110500	1.633185
3.111000	1.631273
3.111500	1.631592
3.112000	1.631910
3.112500	1.630955
3.113000	1.634140
3.113500	1.632866
3.114000	1.630318
3.114500	1.633185
3.115000	1.632547
3.115500	1.632229
3.116000	1.633185
3.116500	1.631592
3.117000	1.631592
3.117500	1.635733
3.118000	1.633822
3.118500	1.629999
3.119000	1.632866
3.119500	1.632866
3.120000	1.632229
3.120500	1.631910
3.121000	1.630636
3.121500	1.630636
3.122000	1.635414
3.122500	1.632547
3.123000	1.631273
3.123500	1.633185
3.124000	1.631910
3.124500	1.632547
3.125000	1.633185
3.125500	1.631273
3.126000	1.630955
3.126500	1.634459
3.127000	1.632229
3.127500	1.631273
3.128000	1.632229
3.128500	1.631910
3.129000	1.631910
3.129500	1.632547
3.130000	1.629362
3.130500	1.630955
3.131000	1.633822
3.131500	1.631910
3.132000	1.631592
3.132500	1.632547
3.133000	1.631273
3.133500	1.633503
3.134000	1.633822
3.134500	1.629999
3.135000	1.631910
3.135500	1.634459
3.136000	1.632547
3.136500	1.631910
3.137000	1.632547
3.137500	1.632229
3.138000	1.633822
3.138500	1.633185
3.139000	1.629999
3.139500	1.631910
3.140000	1.633503
3.140500	1.632547
3.141000	1.631910
3.141500	1.632547
3.142000	1.631592
3.142500	1.634459
3.143000	1.633185
3.143500	1.629362
3.144000	1.632866
3.144500	1.633503
3.145000	1.632229
3.145500	1.633822
3.146000	1.632866
3.146500	1.632547
3.147000	1.634459
3.147500	1.633822
3.148000	1.630636
3.148500	1.633503
3.149000	1.632866
3.149500	1.631592
3.150000	1.633185
3.150500	1.630636
3.151000	1.631273
3.151500	1.634777
3.152000	1.633822
3.152500	1.630636
3.153000	1.632866
3.153500	1.633185
3.154000	1.631273
3.154500	1.633185
3.155000	1.631273
3.155500	1.631910
3.156000	1.635096
3.156500	1.632866
3.157000	1.631273
3.157500	1.633185
3.158000	1.632866
3.158500	1.633503
3.159000	1.633822
3.159500	1.630318
3.160000	1.632866
3.160500	1.635096
3.161000	1.633185
3.161500	1.631910
3.162000	1.633503
3.162500	1.632547
3.163000	1.633822
3.163500	1.633503
3.164000	1.629999
3.164500	1.631910
3.165000	1.634459
3.165500	1.633503
3.166000	1.633503
3.166500	1.633185
3.167000	1.631910
3.167500	1.634140
3.168000	1.634140
3.168500	1.629681
3.169000	1.632229
3.169500	1.634459
3.170000	1.631592
3.170500	1.633503
3.171000	1.632229
3.171500	1.632547
3.172000	1.634777
3.172500	1.634459
3.173000	1.629362
3.173500	1.632866
3.174000	1.633822
3.174500	1.631910
3.175000	1.633503
3.175500	1.631592
3.176000	1.631592
3.176500	1.634459
3.177000	1.633822
3.177500	1.630318
3.178000	1.632547
3.178500	1.632547
3.179000	1.632547
3.179500	1.633185
3.180000	1.631910
3.180500	1.631910
3.181000	1.634459
3.181500	1.633822
3.182000	1.630318
3.182500	1.631910
3.183000	1.633185
3.183500	1.631910
3.184000	1.632866
3.184500	1.631273
3.185000	1.631592
3.185500	1.635096
3.186000	1.633503
3.186500	1.629681
3.187000	1.632866
3.187500	1.632866
3.188000	1.631910
3.188500	1.632547
3.189000	1.630955
3.189500	1.632229
3.190000	1.634459
3.190500	1.632866
3.191000	1.630636
3.191500	1.632866
3.192000	1.632547
3.192500	1.631273
3.193000	1.632866
3.193500	1.630318
3.194000	1.631592
3.194500	1.635096
3.195000	1.632547
3.195500	1.630636
3.196000	1.632547
3.196500	1.632547
3.197000	1.631910
3.197500	1.632866
3.198000	1.629681
3.198500	1.630636
3.199000	1.635096
3.199500	1.631592
3.200000	1.630636
3.200500	1.632229
3.201000	1.631592
3.201500	1.633185
3.202000	1.633503
3.202500	1.629044
3.203000	1.630318
3.203500	1.633822
3.204000	1.631910
3.204500	1.631592
3.205000	1.632866
3.205500	1.630955
3.206000	1.632866
3.206500	1.633503
3.207000	1.629681
3.207500	1.631910
3.208000	1.634140
3.208500	1.632547
3.209000	1.630955
3.209500	1.632229
3.210000	1.630636
3.210500	1.633822
3.211000	1.633503
3.211500	1.629681
3.212000	1.631910
3.212500	1.633822
3.213000	1.631910
3.213500	1.632229
3.214000	1.631592
3.214500	1.630636
3.215000	1.634140
3.215500	1.633185
3.216000	1.628725
3.216500	1.631910
3.217000	1.633185
3.217500	1.631910
3.218000	1.632547
3.218500	1.631910
3.219000	1.630955
3.219500	1.634459
3.220000	1.632547
3.220500	1.629044
3.221000	1.633185
3.221500	1.632547
3.222000	1.630636
3.222500	1.632547
3.223000	1.631910
3.223500	1.630955
3.224000	1.635414
3.224500	1.632229
3.225000	1.630955
3.225500	1.632866
3.226000	1.632866
3.226500	1.632229
3.227000	1.633503
3.227500	1.629999
3.228000	1.631910
3.228500	1.635096
3.229000	1.632547
3.229500	1.631910
3.230000	1.632547
3.230500	1.632866
3.231000	1.632547
3.231500	1.633185
3.232000	1.629681
3.232500	1.632547
3.233000	1.634140
3.233500	1.631910
3.234000	1.631910
3.234500	1.633185
3.235000	1.632229
3.235500	1.633822
3.236000	1.633185
3.236500	1.630636
3.237000	1.632547
3.237500	1.634459
3.238000	1.632547
3.238500	1.632229
3.239000	1.633503
3.239500	1.631910
3.240000	1.635096
3.240500	1.632866
3.241000	1.629999
3.241500	1.631910
3.242000	1.634140
3.242500	1.631592
3.243000	1.633822
3.243500	1.632547
3.244000	1.631592
3.244500	1.635096
3.245000	1.633503
3.245500	1.630636
3.246000	1.632866
3.246500	1.632866
3.247000	1.632866
3.247500	1.632866
3.248000	1.631592
3.248500	1.630636
3.249000	1.635414
3.249500	1.633185
3.250000	1.630636
3.250500	1.632866
3.251000	1.632547
3.251500	1.631910
3.252000	1.632229
3.252500	1.630955
3.253000	1.632547
3.253500	1.635733
3.254000	1.632866
3.254500	1.631273
3.255000	1.633185
3.255500	1.632547
3.256000	1.632547
3.256500	1.633503
3.257000	1.630318
3.257500	1.631592
3.258000	1.635414
3.258500	1.633185
3.259000	1.631592
3.259500	1.632866
3.260000	1.631592
3.260500	1.633503
3.261000	1.633185
3.261500	1.629044
3.262000	1.631910
3.262500	1.635414
3.263000	1.632547
3.263500	1.631273
3.264000	1.632866
3.264500	1.631592
3.265000	1.633503
3.265500	1.633185
3.266000	1.629681
3.266500	1.632229
3.267000	1.633822
3.267500	1.632229
3.268000	1.632547
3.268500	1.632547
3.269000	1.630636
3.269500	1.633822
3.270000	1.632866
3.270500	1.629681
3.271000	1.631592
3.271500	1.633503
3.272000	1.630955
3.272500	1.631273
3.273000	1.632866
3.273500	1.631273
3.274000	1.633822
3.274500	1.632547
3.275000	1.628088
3.275500	1.632229
3.276000	1.633503
3.276500	1.631273
3.277000	1.632229
3.277500	1.631273
3.278000	1.631273
3.278500	1.634140
3.279000	1.632866
3.279500	1.629681
3.280000	1.632229
3.280500	1.632866
3.281000	1.630318
3.281500	1.631910
3.282000	1.631592
3.282500	1.629999
3.283000	1.634459
3.283500	1.631592
3.284000	1.629044
3.284500	1.632229
3.285000	1.630955
3.285500	1.631273
3.286000	1.632547
3.286500	1.629999
3.287000	1.630318
3.287500	1.634459
3.288000	1.631273
3.288500	1.629999
3.289000	1.632547
3.289500	1.631592
3.290000	1.633822
3.290500	1.632866
3.291000	1.630318
3.291500	1.630636
3.292000	1.634459
3.292500	1.631910
3.293000	1.631592
3.293500	1.632229
3.294000	1.631273
3.294500	1.631910
3.295000	1.632229
3.295500	1.629362
3.296000	1.631273
3.296500	1.634140
3.297000	1.631910
3.297500	1.630955
3.298000	1.632866
3.298500	1.631273
3.299000	1.632547
3.299500	1.632866
3.300000	1.628725
3.300500	1.631273
3.301000	1.633503
3.301500	1.631592
3.302000	1.631592
3.302500	1.631910
3.303000	1.631273
3.303500	1.633185
3.304000	1.632547
3.304500	1.629681
3.305000	1.631910
3.305500	1.633503
3.306000	1.631273
3.306500	1.631910
3.307000	1.631592
3.307500	1.630955
3.308000	1.633822
3.308500	1.632547
3.309000	1.629681
3.309500	1.632229
3.310000	1.633503
3.310500	1.629999
3.311000	1.632229
3.311500	1.631273
3.312000	1.630636
3.312500	1.634459
3.313000	1.632229
3.313500	1.630636
3.314000	1.631910
3.314500	1.631592
3.315000	1.630955
3.315500	1.632547
3.316000	1.630636
3.316500	1.630955
3.317000	1.634777
3.317500	1.632866
3.318000	1.630636
3.318500	1.632229
3.319000	1.631910
3.319500	1.633185
3.320000	1.632866
3.320500	1.629999
3.321000	1.631910
3.321500	1.634777
3.322000	1.632229
3.322500	1.631910
3.323000	1.633822
3.323500	1.632547
3.324000	1.633503
3.324500	1.633503
3.325000	1.630318
3.325500	1.632547
3.326000	1.635096
3.326500	1.632229
3.327000	1.632547
3.327500	1.633185
3.328000	1.631273
3.328500	1.634140
3.329000	1.632547
3.329500	1.629999
3.330000	1.631273
3.330500	1.634459
3.331000	1.630955
3.331500	1.632866
3.332000	1.631910
3.332500	1.631910
3.333000	1.635096
3.333500	1.633503
3.334000	1.629362
3.334500	1.631910
3.335000	1.633503
3.335500	1.631273
3.336000	1.632229
3.336500	1.632229
3.337000	1.631592
3.337500	1.635096
3.338000	1.633185
3.338500	1.629362
3.339000	1.632866
3.339500	1.633503
3.340000	1.632547
3.340500	1.633503
3.341000	1.631273
3.341500	1.631910
3.342000	1.634459
3.342500	1.633185
3.343000	1.629999
3.343500	1.632547
3.344000	1.632229
3.344500	1.632547
3.345000	1.632866
3.345500	1.631273
3.346000	1.631273
3.346500	1.635414
3.347000	1.632547
3.347500	1.629999
3.348000	1.631910
3.348500	1.632547
3.349000	1.631273
3.349500	1.633185
3.350000	1.630636
3.350500	1.630318
3.351000	1.634777
3.351500	1.632547
3.352000	1.631273
3.352500	1.632547
3.353000	1.632547
3.353500	1.631910
3.354000	1.633503
3.354500	1.630636
3.355000	1.630955
3.355500	1.634777
3.356000	1.632547
3.356500	1.630318
3.357000	1.633185
3.357500	1.631910
3.358000	1.631273
3.358500	1.631910
3.359000	1.630318
3.359500	1.631592
3.360000	1.635414
3.360500	1.631592
3.361000	1.631592
3.361500	1.633185
3.362000	1.630955
3.362500	1.633185
3.363000	1.633185
3.363500	1.630636
3.364000	1.631273
3.364500	1.634459
3.365000	1.631910
3.365500	1.630955
3.366000	1.632866
3.366500	1.631592
3.367000	1.633503
3.367500	1.632866
3.368000	1.629362
3.368500	1.631910
3.369000	1.634459
3.369500	1.632547
3.370000	1.631592
3.370500	1.633503
3.371000	1.632229
3.371500	1.633503
3.372000	1.633503
3.372500	1.629362
3.373000	1.631592
3.373500	1.633822
3.374000	1.631592
3.374500	1.631910
3.375000	1.632866
3.375500	1.631910
3.376000	1.634140
3.376500	1.632866
3.377000	1.629362
3.377500	1.631910
3.378000	1.633503
3.378500	1.632229
3.379000	1.633185
3.379500	1.632229
3.380000	1.631910
3.380500	1.635096
3.381000	1.632866
3.381500	1.629681
3.382000	1.632547
3.382500	1.632547
3.383000	1.632866
3.383500	1.632866
3.384000	1.631592
3.384500	1.631910
3.385000	1.634777
3.385500	1.633822
3.386000	1.630636
3.386500	1.633185
3.387000	1.632866
3.387500	1.632229
3.388000	1.633185
3.388500	1.631273
3.389000	1.631273
3.389500	1.635414
3.390000	1.633503
3.390500	1.631273
3.391000	1.633185
3.391500	1.632547
3.392000	1.632547
3.392500	1.633503
3.393000	1.630636
3.393500	1.631910
3.394000	1.635096
3.394500	1.632547
3.395000	1.631592
3.395500	1.633503
3.396000	1.632229
3.396500	1.633822
3.397000	1.633822
3.397500	1.629999
3.398000	1.631910
3.398500	1.634459
3.399000	1.631592
3.399500	1.633185
3.400000	1.633822
3.400500	1.631592
3.401000	1.634459
3.401500	1.633822
3.402000	1.629681
3.402500	1.632229
3.403000	1.633503
3.403500	1.632229
3.404000	1.633185
3.404500	1.632229
3.405000	1.632229
3.405500	1.635414
3.406000	1.633185
3.406500	1.629999
3.407000	1.632866
3.407500	1.633822
3.408000	1.632866
3.408500	1.633503
3.409000	1.631910
3.409500	1.631592
3.410000	1.635733
3.410500	1.633503
3.411000	1.630318
3.411500	1.632547
3.412000	1.633185
3.412500	1.632229
3.413000	1.633503
3.413500	1.631592
3.414000	1.631910
3.414500	1.634777
3.415000	1.633822
3.415500	1.631592
3.416000	1.633185
3.416500	1.632866
3.417000	1.632866
3.417500	1.634140
3.418000	1.629999
3.418500	1.631273
3.419000	1.635096
3.419500	1.632866
3.420000	1.631592
3.420500	1.633185
3.421000	1.632866
3.421500	1.633185
3.422000	1.633822
3.422500	1.630318
3.423000	1.631273
3.423500	1.634459
3.424000	1.632866
3.424500	1.632229
3.425000	1.632547
3.425500	1.631910
3.426000	1.633822
3.426500	1.633822
3.427000	1.629681
3.427500	1.632547
3.428000	1.633822
3.428500	1.631592
3.429000	1.632547
3.429500	1.632547
3.430000	1.630955
3.430500	1.634777
3.431000	1.633185
3.431500	1.629999
3.432000	1.632866
3.432500	1.632547
3.433000	1.632866
3.433500	1.632229
3.434000	1.631592
3.434500	1.631273
3.435000	1.635414
3.435500	1.632547
3.436000	1.630636
3.436500	1.633185
3.437000	1.633185
3.437500	1.631592
3.438000	1.633503
3.438500	1.629999
3.439000	1.631273
3.439500	1.635414
3.440000	1.631910
3.440500	1.630955
3.441000	1.633185
3.441500	1.631910
3.442000	1.632547
3.442500	1.633503
3.443000	1.629999
3.443500	1.631273
3.444000	1.634459
3.444500	1.632547
3.445000	1.632547
3.445500	1.633503
3.446000	1.631910
3.446500	1.633822
3.447000	1.632866
3.447500	1.629999
3.448000	1.632866
3.448500	1.633822
3.449000	1.631592
3.449500	1.633185
3.450000	1.631592
3.450500	1.632229
3.451000	1.634459
3.451500	1.633822
3.452000	1.629681
3.452500	1.632866
3.453000	1.633503
3.453500	1.632547
3.454000	1.633503
3.454500	1.631592
3.455000	1.631910
3.455500	1.634777
3.456000	1.632547
3.456500	1.630318
3.457000	1.633503
3.457500	1.632866
3.458000	1.632866
3.458500	1.633503
3.459000	1.631592
3.459500	1.631592
3.460000	1.635096
3.460500	1.633185
3.461000	1.630955
3.461500	1.633185
3.462000	1.632866
3.462500	1.633185
3.463000	1.634140
3.463500	1.629999
3.464000	1.631910
3.464500	1.634777
3.465000	1.632866
3.465500	1.632229
3.466000	1.633185
3.466500	1.632547
3.467000	1.633822
3.467500	1.634459
3.468000	1.629681
3.468500	1.632547
3.469000	1.635096
3.469500	1.632547
3.470000	1.633185
3.470500	1.632866
3.471000	1.631592
3.471500	1.634140
3.472000	1.633822
3.472500	1.629681
3.473000	1.633185
3.473500	1.634140
3.474000	1.632547
3.474500	1.633822
3.475000	1.633822
3.475500	1.632229
3.476000	1.635096
3.476500	1.633503
3.477000	1.630636
3.477500	1.633185
3.478000	1.633822
3.478500	1.632547
3.479000	1.632866
3.479500	1.632229
3.480000	1.631592
3.480500	1.635096
3.481000	1.633822
3.481500	1.631592
3.482000	1.633185
3.482500	1.633822
3.483000	1.632866
3.483500	1.633503
3.484000	1.632547
3.484500	1.630955
3.485000	1.636370
3.485500	1.633503
3.486000	1.631273
3.486500	1.633503
3.487000	1.633185
3.487500	1.632866
3.488000	1.634140
3.488500	1.631910
3.489000	1.631592
3.489500	1.635733
3.490000	1.632866
3.490500	1.631910
3.491000	1.633822
3.491500	1.633185
3.492000	1.633822
3.492500	1.634140
3.493000	1.630636
3.493500	1.633185
3.494000	1.635733
3.494500	1.632866
3.495000	1.632866
3.495500	1.633185
3.496000	1.632547
3.496500	1.634459
3.497000	1.634140
3.497500	1.629999
3.498000	1.631910
3.498500	1.634140
3.499000	1.632866
3.499500	1.632547
3.500000	1.633185
3.500500	1.632866
3.501000	1.634777
3.501500	1.633822
3.502000	1.629681
3.502500	1.632547
3.503000	1.634777
3.503500	1.631910
3.504000	1.632547
3.504500	1.632866
3.505000	1.632547
3.505500	1.634777
3.506000	1.633503
3.506500	1.630955
3.507000	1.633185
3.507500	1.633822
3.508000	1.632866
3.508500	1.632866
3.509000	1.631910
3.509500	1.630955
3.510000	1.635096
3.510500	1.633822
3.511000	1.629362
3.511500	1.633822
3.512000	1.632866
3.512500	1.632229
3.513000	1.633503
3.513500	1.631592
3.514000	1.631273
3.514500	1.634459
3.515000	1.632547
3.515500	1.631273
3.516000	1.633822
3.516500	1.633185
3.517000	1.632547
3.517500	1.633503
3.518000	1.629681
3.518500	1.630955
3.519000	1.635414
3.519500	1.632866
3.520000	1.631592
3.520500	1.632866
3.521000	1.632547
3.521500	1.633185
3.522000	1.633185
3.522500	1.629999
3.523000	1.631910
3.523500	1.634140
3.524000	1.632229
3.524500	1.631910
3.525000	1.632547
3.525500	1.632547
3.526000	1.633503
3.526500	1.633822
3.527000	1.629362
3.527500	1.631910
3.528000	1.634140
3.528500	1.632229
3.529000	1.632866
3.529500	1.632547
3.530000	1.632229
3.530500	1.634140
3.531000	1.632866
3.531500	1.629681
3.532000	1.633185
3.532500	1.632866
3.533000	1.631592
3.533500	1.632229
3.534000	1.631273
3.534500	1.630955
3.535000	1.635414
3.535500	1.632866
3.536000	1.629681
3.536500	1.633503
3.537000	1.632547
3.537500	1.631592
3.538000	1.632866
3.538500	1.630636
3.539000	1.630636
3.539500	1.635096
3.540000	1.632866
3.540500	1.630636
3.541000	1.632866
3.541500	1.631910
3.542000	1.632547
3.542500	1.633503
3.543000	1.629999
3.543500	1.631592
3.544000	1.635096
3.544500	1.631592
3.545000	1.631910
3.545500	1.633185
3.546000	1.632229
3.546500	1.633822
3.547000	1.633503
3.547500	1.629362
3.548000	1.631273
3.548500	1.633822
3.549000	1.631592
3.549500	1.631910
3.550000	1.632547
3.550500	1.631910
3.551000	1.634777
3.551500	1.633503
3.552000	1.629362
3.552500	1.631910
3.553000	1.633503
3.553500	1.631273
3.554000	1.633503
3.554500	1.632229
3.555000	1.630636
3.555500	1.634459
3.556000	1.633822
3.556500	1.630636
3.557000	1.633185
3.557500	1.633503
3.558000	1.631910
3.558500	1.633503
3.559000	1.631273
3.559500	1.630955
3.560000	1.635096
3.560500	1.632547
3.561000	1.630955
3.561500	1.632866
3.562000	1.632547
3.562500	1.632866
3.563000	1.632866
3.563500	1.630636
3.564000	1.631592
3.564500	1.635096
3.565000	1.632547
3.565500	1.632547
3.566000	1.632866
3.566500	1.632229
3.567000	1.633503
3.567500	1.633822
3.568000	1.629362
3.568500	1.631273
3.569000	1.634140
3.569500	1.631273
3.570000	1.632547
3.570500	1.632547
3.571000	1.631910
3.571500	1.634777
3.572000	1.632547
3.572500	1.629681
3.573000	1.633185
3.573500	1.633185
3.574000	1.631910
3.574500	1.633185
3.575000	1.631273
3.575500	1.631910
3.576000	1.635096
3.576500	1.633185
3.577000	1.629044
3.577500	1.633185
3.578000	1.632547
3.578500	1.630955
3.579000	1.631273
3.579500	1.630955
3.580000	1.631273
3.580500	1.635096
3.581000	1.633185
3.581500	1.630636
3.582000	1.633503
3.582500	1.632547
3.583000	1.632866
3.583500	1.632866
3.584000	1.630318
3.584500	1.631273
3.585000	1.634140
3.585500	1.632547
3.586000	1.631592
3.586500	1.633503
3.587000	1.631273
3.587500	1.632547
3.588000	1.633822
3.588500	1.629362
3.589000	1.631592
3.589500	1.634777
3.590000	1.632547
3.590500	1.631273
3.591000	1.632866
3.591500	1.632547
3.592000	1.632866
3.592500	1.632866
3.593000	1.629681
3.593500	1.631592
3.594000	1.633822
3.594500	1.631910
3.595000	1.631910
3.595500	1.633185
3.596000	1.632547
3.596500	1.634459
3.597000	1.631910
3.597500	1.629044
3.598000	1.632229
3.598500	1.633503
3.599000	1.631910
3.599500	1.632229
3.600000	1.632229
3.600500	1.631273
3.601000	1.634459
3.601500	1.633822
3.602000	1.630636
3.602500	1.631910
3.603000	1.632866
3.603500	1.632547
3.604000	1.633822
3.604500	1.631910
3.605000	1.630636
3.605500	1.634459
3.606000	1.632866
3.606500	1.630318
3.607000	1.632866
3.607500	1.633503
3.608000	1.632866
3.608500	1.633185
3.609000	1.631273
3.609500	1.631910
3.610000	1.635096
3.610500	1.632866
3.611000	1.630636
3.611500	1.632866
3.612000	1.632866
3.612500	1.632866
3.613000	1.634140
3.613500	1.630636
3.614000	1.632229
3.614500	1.635096
3.615000	1.633503
3.615500	1.631910
3.616000	1.632229
3.616500	1.633185
3.617000	1.633185
3.617500	1.633822
3.618000	1.629681
3.618500	1.631592
3.619000	1.634777
3.619500	1.632866
3.620000	1.631910
3.620500	1.634140
3.621000	1.631910
3.621500	1.633822
3.622000	1.633822
3.622500	1.630318
3.623000	1.632866
3.623500	1.634777
3.624000	1.632547
3.624500	1.632866
3.625000	1.633503
3.625500	1.631592
3.626000	1.634140
3.626500	1.633822
3.627000	1.629999
3.627500	1.632547
3.628000	1.634140
3.628500	1.631592
3.629000	1.633503
3.629500	1.632866
3.630000	1.632547
3.630500	1.635096
3.631000	1.633503
3.631500	1.629681
3.632000	1.632866
3.632500	1.633822
3.633000	1.632547
3.633500	1.632866
3.634000	1.631910
3.634500	1.631273
3.635000	1.634777
3.635500	1.633503
3.636000	1.630955
3.636500	1.633185
3.637000	1.633503
3.637500	1.633185
3.638000	1.633503
3.638500	1.631273
3.639000	1.632866
3.639500	1.635733
3.640000	1.633185
3.640500	1.631592
3.641000	1.633503
3.641500	1.633185
3.642000	1.632547
3.642500	1.633503
3.643000	1.630636
3.643500	1.631592
3.644000	1.635096
3.644500	1.634140
3.645000	1.631592
3.645500	1.633503
3.646000	1.631910
3.646500	1.632866
3.647000	1.633503
3.647500	1.630636
3.648000	1.632229
3.648500	1.634459
3.649000	1.632866
3.649500	1.632547
3.650000	1.633503
3.650500	1.632866
3.651000	1.633503
3.651500	1.633822
3.652000	1.629999
3.652500	1.631273
3.653000	1.634777
3.653500	1.633185
3.654000	1.632547
3.654500	1.633185
3.655000	1.632866
3.655500	1.633822
3.656000	1.633822
3.656500	1.629999
3.657000	1.632547
3.657500	1.634459
3.658000	1.631910
3.658500	1.633503
3.659000	1.632866
3.659500	1.632547
3.660000	1.634459
3.660500	1.633503
3.661000	1.629999
3.661500	1.632866
3.662000	1.633822
3.662500	1.631592
3.663000	1.632866
3.663500	1.632866
3.664000	1.631910
3.664500	1.635414
3.665000	1.634459
3.665500	1.630636
3.666000	1.632866
3.666500	1.633503
3.667000	1.631592
3.667500	1.633185
3.668000	1.632547
3.668500	1.631592
3.669000	1.636051
3.669500	1.633503
3.670000	1.630955
3.670500	1.633185
3.671000	1.633185
3.671500	1.632547
3.672000	1.632866
3.672500	1.631592
3.673000	1.631910
3.673500	1.635414
3.674000	1.633822
3.674500	1.631273
3.675000	1.633503
3.675500	1.632866
3.676000	1.633185
3.676500	1.633822
3.677000	1.630318
3.677500	1.632229
3.678000	1.635096
3.678500	1.632866
3.679000	1.632547
3.679500	1.632866
3.680000	1.631910
3.680500	1.633822
3.681000	1.633822
3.681500	1.629999
3.682000	1.631592
3.682500	1.634777
3.683000	1.632547
3.683500	1.632547
3.684000	1.633822
3.684500	1.632866
3.685000	1.633503
3.685500	1.633185
3.686000	1.630955
3.686500	1.631592
3.687000	1.634140
3.687500	1.631592
3.688000	1.632229
3.688500	1.633503
3.689000	1.632229
3.689500	1.633822
3.690000	1.633503
3.690500	1.629999
3.691000	1.633185
3.691500	1.633822
3.692000	1.631592
3.692500	1.633185
3.693000	1.632866
3.693500	1.631592
3.694000	1.635096
3.694500	1.633822
3.695000	1.630318
3.695500	1.633185
3.696000	1.633503
3.696500	1.632547
3.697000	1.632866
3.697500	1.632547
3.698000	1.632547
3.698500	1.636051
3.699000	1.633503
3.699500	1.630318
3.700000	1.632547
3.700500	1.633503
3.701000	1.633185
3.701500	1.633503
3.702000	1.632229
3.702500	1.631592
3.703000	1.636688
3.703500	1.633503
3.704000	1.631273
3.704500	1.633822
3.705000	1.633185
3.705500	1.632866
3.706000	1.634459
3.706500	1.631910
3.707000	1.631910
3.707500	1.635733
3.708000	1.633185
3.708500	1.632229
3.709000	1.633185
3.709500	1.633185
3.710000	1.633822
3.710500	1.634140
3.711000	1.630318
3.711500	1.633185
3.712000	1.635096
3.712500	1.633822
3.713000	1.632547
3.713500	1.633503
3.714000	1.632866
3.714500	1.634140
3.715000	1.634459
3.715500	1.630955
3.716000	1.632547
3.716500	1.635733
3.717000	1.633185
3.717500	1.633503
3.718000	1.634459
3.718500	1.633185
3.719000	1.634459
3.719500	1.634140
3.720000	1.631592
3.720500	1.632547
3.721000	1.634459
3.721500	1.632866
3.722000	1.633822
3.722500	1.633822
3.723000	1.632866
3.723500	1.635414
3.724000	1.633822
3.724500	1.631273
3.725000	1.632547
3.725500	1.634459
3.726000	1.632866
3.726500	1.633822
3.727000	1.632866
3.727500	1.632547
3.728000	1.635414
3.728500	1.634777
3.729000	1.631273
3.729500	1.633822
3.730000	1.633822
3.730500	1.633185
3.731000	1.634140
3.731500	1.631910
3.732000	1.632547
3.732500	1.635733
3.733000	1.634459
3.733500	1.631910
3.734000	1.634140
3.734500	1.633503
3.735000	1.633503
3.735500	1.634140
3.736000	1.632229
3.736500	1.632866
3.737000	1.635733
3.737500	1.633822
3.738000	1.632229
3.738500	1.633822
3.739000	1.632866
3.739500	1.633822
3.740000	1.634459
3.740500	1.630636
3.741000	1.632866
3.741500	1.635414
3.742000	1.632866
3.742500	1.632547
3.743000	1.633185
3.743500	1.632866
3.744000	1.635096
3.744500	1.634459
3.745000	1.629999
3.745500	1.632866
3.746000	1.634140
3.746500	1.633185
3.747000	1.633503
3.747500	1.633822
3.748000	1.632866
3.748500	1.636051
3.749000	1.633822
3.749500	1.630318
3.750000	1.633503
3.750500	1.633822
3.751000	1.633503
3.751500	1.633822
3.752000	1.632866
3.752500	1.632866
3.753000	1.635414
3.753500	1.633185
3.754000	1.631273
3.754500	1.634140
3.755000	1.633503
3.755500	1.633503
3.756000	1.633822
3.756500	1.631592
3.757000	1.631910
3.757500	1.635096
3.758000	1.633185
3.758500	1.632547
3.759000	1.634459
3.759500	1.633503
3.760000	1.633822
3.760500	1.633822
3.761000	1.630636
3.761500	1.632547
3.762000	1.634140
3.762500	1.633503
3.763000	1.632547
3.763500	1.633822
3.764000	1.632866
3.764500	1.634459
3.765000	1.634459
3.765500	1.630636
3.766000	1.632229
3.766500	1.634777
3.767000	1.633822
3.767500	1.633185
3.768000	1.633185
3.768500	1.632547
3.769000	1.635414
3.769500	1.633503
3.770000	1.629681
3.770500	1.633185
3.771000	1.633822
3.771500	1.633185
3.772000	1.633185
3.772500	1.632547
3.773000	1.632866
3.773500	1.636370
3.774000	1.633822
3.774500	1.631273
3.775000	1.633822
3.775500	1.634140
3.776000	1.633822
3.776500	1.633822
3.777000	1.631592
3.777500	1.632866
3.778000	1.636370
3.778500	1.633503
3.779000	1.632547
3.779500	1.633822
3.780000	1.633822
3.780500	1.633822
3.781000	1.633822
3.781500	1.630955
3.782000	1.632547
3.782500	1.636370
3.783000	1.633185
3.783500	1.633185
3.784000	1.633822
3.784500	1.632866
3.785000	1.633822
3.785500	1.635096
3.786000	1.631273
3.786500	1.632547
3.787000	1.636370
3.787500	1.633822
3.788000	1.632547
3.788500	1.634140
3.789000	1.633503
3.789500	1.633822
3.790000	1.634459
3.790500	1.630955
3.791000	1.633503
3.791500	1.635096
3.792000	1.633503
3.792500	1.633822
3.793000	1.633503
3.793500	1.632547
3.794000	1.635096
3.794500	1.634459
3.795000	1.630636
3.795500	1.633503
3.796000	1.635096
3.796500	1.632866
3.797000	1.633822
3.797500	1.633185
3.798000	1.632229
3.798500	1.636051
3.799000	1.635414
3.799500	1.631273
3.800000	1.632866
3.800500	1.634140
3.801000	1.633185
3.801500	1.633503
3.802000	1.631910
3.802500	1.631910
3.803000	1.636688
3.803500	1.634140
3.804000	1.630955
3.804500	1.633822
3.805000	1.633185
3.805500	1.633822
3.806000	1.633822
3.806500	1.631910
3.807000	1.632866
3.807500	1.635733
3.808000	1.633503
3.808500	1.632229
3.809000	1.634140
3.809500	1.633185
3.810000	1.634140
3.810500	1.634140
3.811000	1.631273
3.811500	1.632547
3.812000	1.635414
3.812500	1.632866
3.813000	1.632866
3.813500	1.633822
3.814000	1.633503
3.814500	1.634140
3.815000	1.634140
3.815500	1.630636
3.816000	1.633185
3.816500	1.635414
3.817000	1.633185
3.817500	1.633503
3.818000	1.633503
3.818500	1.631910
3.819000	1.634459
3.819500	1.634777
3.820000	1.630318
3.820500	1.632547
3.821000	1.633822
3.821500	1.632547
3.822000	1.633185
3.822500	1.632866
3.823000	1.633185
3.823500	1.633822
3.824000	1.634140
3.824500	1.630318
3.825000	1.632866
3.825500	1.633822
3.826000	1.632547
3.826500	1.633822
3.827000	1.633185
3.827500	1.632866
3.828000	1.635733
3.828500	1.633503
3.829000	1.631910
3.829500	1.633822
3.830000	1.634140
3.830500	1.633185
3.831000	1.633503
3.831500	1.632866
3.832000	1.633503
3.832500	1.635733
3.833000	1.634140
3.833500	1.631273
3.834000	1.633822
3.834500	1.633822
3.835000	1.632866
3.835500	1.633822
3.836000	1.631592
3.836500	1.632547
3.837000	1.635733
3.837500	1.633822
3.838000	1.631592
3.838500	1.633822
3.839000	1.633503
3.839500	1.633822
3.840000	1.633822
3.840500	1.631273
3.841000	1.632547
3.841500	1.636051
3.842000	1.633503
3.842500	1.632866
3.843000	1.634140
3.843500	1.632866
3.844000	1.634459
3.844500	1.633822
3.845000	1.630955
3.845500	1.632866
3.846000	1.635414
3.846500	1.633822
3.847000	1.633503
3.847500	1.633503
3.848000	1.633503
3.848500	1.635096
3.849000	1.634140
3.849500	1.630318
3.850000	1.632866
3.850500	1.635414
3.851000	1.632547
3.851500	1.633503
3.852000	1.633185
3.852500	1.632547
3.853000	1.637007
3.853500	1.634459
3.854000	1.630636
3.854500	1.634140
3.855000	1.634777
3.855500	1.633822
3.856000	1.634140
3.856500	1.634140
3.857000	1.633185
3.857500	1.637007
3.858000	1.634459
3.858500	1.632229
3.859000	1.633822
3.859500	1.634777
3.860000	1.633822
3.860500	1.634140
3.861000	1.633503
3.861500	1.633503
3.862000	1.636688
3.862500	1.634140
3.863000	1.631592
3.863500	1.633822
3.864000	1.633822
3.864500	1.633822
3.865000	1.634459
3.865500	1.631592
3.866000	1.633822
3.866500	1.636688
3.867000	1.634777
3.867500	1.632547
3.868000	1.634140
3.868500	1.633822
3.869000	1.633822
3.869500	1.634140
3.870000	1.632229
3.870500	1.632866
3.871000	1.637326
3.871500	1.634140
3.872000	1.632547
3.872500	1.635096
3.873000	1.633822
3.873500	1.634459
3.874000	1.635096
3.874500	1.630955
3.875000	1.633822
3.875500	1.636370
3.876000	1.633822
3.876500	1.633503
3.877000	1.634140
3.877500	1.633503
3.878000	1.633822
3.878500	1.634140
3.879000	1.631592
3.879500	1.633185
3.880000	1.636051
3.880500	1.633822
3.881000	1.634140
3.881500	1.633503
3.882000	1.633503
3.882500	1.635096
3.883000	1.634777
3.883500	1.630636
3.884000	1.634140
3.884500	1.635096
3.885000	1.633185
3.885500	1.634459
3.886000	1.634140
3.886500	1.633185
3.887000	1.636051
3.887500	1.634777
3.888000	1.631273
3.888500	1.634459
3.889000	1.634459
3.889500	1.633185
3.890000	1.634140
3.890500	1.633503
3.891000	1.633185
3.891500	1.636688
3.892000	1.634459
3.892500	1.631273
3.893000	1.634140
3.893500	1.633822
3.894000	1.633185
3.894500	1.634140
3.895000	1.632866
3.895500	1.632547
3.896000	1.636688
3.896500	1.634459
3.897000	1.631910
3.897500	1.634140
3.898000	1.633822
3.898500	1.633822
3.899000	1.634459
3.899500	1.630636
3.900000	1.633185
3.900500	1.636370
3.901000	1.633822
3.901500	1.632866
3.902000	1.634140
3.902500	1.633185
3.903000	1.634777
3.903500	1.634140
3.904000	1.630636
3.904500	1.632229
3.905000	1.635414
3.905500	1.633503
3.906000	1.633822
3.906500	1.633503
3.907000	1.632866
3.907500	1.634777
3.908000	1.634140
3.908500	1.630318
3.909000	1.633503
3.909500	1.633822
3.910000	1.632547
3.910500	1.633185
3.911000	1.634140
3.911500	1.632866
3.912000	1.635733
3.912500	1.634140
3.913000	1.630318
3.913500	1.633185
3.914000	1.634140
3.914500	1.633185
3.915000	1.634459
3.915500	1.632547
3.916000	1.632547
3.916500	1.636370
3.917000	1.633822
3.917500	1.631592
3.918000	1.632866
3.918500	1.633822
3.919000	1.632547
3.919500	1.634140
3.920000	1.633185
3.920500	1.632547
3.921000	1.636051
3.921500	1.633822
3.922000	1.632866
3.922500	1.633822
3.923000	1.632866
3.923500	1.633822
3.924000	1.634140
3.924500	1.631910
3.925000	1.632547
3.925500	1.635414
3.926000	1.633503
3.926500	1.631910
3.927000	1.634140
3.927500	1.633185
3.928000	1.633822
3.928500	1.633822
3.929000	1.631273
3.929500	1.634777
3.930000	1.635414
3.930500	1.632547
3.931000	1.632547
3.931500	1.633185
3.932000	1.632547
3.932500	1.634459
3.933000	1.634140
3.933500	1.630955
3.934000	1.633503
3.934500	1.635096
3.935000	1.632866
3.935500	1.633185
3.936000	1.633503
3.936500	1.633185
3.937000	1.635733
3.937500	1.633822
3.938000	1.630636
3.938500	1.632866
3.939000	1.634140
3.939500	1.632547
3.940000	1.633185
3.940500	1.632866
3.941000	1.631910
3.941500	1.636370
3.942000	1.633822
3.942500	1.630318
3.943000	1.633503
3.943500	1.634140
3.944000	1.633822
3.944500	1.633822
3.945000	1.632866
3.945500	1.632547
3.946000	1.636370
3.946500	1.633503
3.947000	1.631592
3.947500	1.633822
3.948000	1.633503
3.948500	1.632866
3.949000	1.633822
3.949500	1.632547
3.950000	1.631910
3.950500	1.636688
3.951000	1.633822
3.951500	1.631910
3.952000	1.634140
3.952500	1.633185
3.953000	1.633503
3.953500	1.634140
3.954000	1.631910
3.954500	1.632229
3.955000	1.636370
3.955500	1.633822
3.956000	1.632547
3.956500	1.634140
3.957000	1.633185
3.957500	1.634140
3.958000	1.633503
3.958500	1.631273
3.959000	1.632547
3.959500	1.634777
3.960000	1.633503
3.960500	1.633503
3.961000	1.633822
3.961500	1.633822
3.962000	1.634459
3.962500	1.633822
3.963000	1.630955
3.963500	1.633822
3.964000	1.634777
3.964500	1.633185
3.965000	1.632866
3.965500	1.633822
3.966000	1.632866
3.966500	1.635096
3.967000	1.635096
3.967500	1.630636
3.968000	1.632547
3.968500	1.634459
3.969000	1.631910
3.969500	1.633503
3.970000	1.633822
3.970500	1.632547
3.971000	1.635733
3.971500	1.634459
3.972000	1.629999
3.972500	1.632866
3.973000	1.634777
3.973500	1.632547
3.974000	1.633503
3.974500	1.633503
3.975000	1.632866
3.975500	1.635733
3.976000	1.634140
3.976500	1.631273
3.977000	1.633822
3.977500	1.634140
3.978000	1.632547
3.978500	1.633822
3.979000	1.631910
3.979500	1.633503
3.980000	1.635733
3.980500	1.633185
3.981000	1.631910
3.981500	1.633822
3.982000	1.633185
3.982500	1.633822
3.983000	1.634140
3.983500	1.630636
3.984000	1.632547
3.984500	1.635414
3.985000	1.633822
3.985500	1.632866
3.986000	1.633503
3.986500	1.633185
3.987000	1.634459
3.987500	1.633503
3.988000	1.630636
3.988500	1.632866
3.989000	1.634459
3.989500	1.632229
3.990000	1.632866
3.990500	1.633185
3.991000	1.632229
3.991500	1.634140
3.992000	1.633185
3.992500	1.629999
3.993000	1.632547
3.993500	1.634140
3.994000	1.633822
3.994500	1.632866
3.995000	1.633185
3.995500	1.632229
3.996000	1.635733
3.996500	1.633503
3.997000	1.630955
3.997500	1.633185
3.998000	1.633822
3.998500	1.632229
3.999000	1.633185
3.999500	1.632229
4.000000	1.631910
4.000500	1.635414
4.001000	1.633822
4.001500	1.630636
4.002000	1.633185
4.002500	1.632866
4.003000	1.632866
4.003500	1.633503
4.004000	1.632229
4.004500	1.632229
4.005000	1.635414
4.005500	1.633822
4.006000	1.630955
4.006500	1.633185
4.007000	1.632547
4.007500	1.633503
4.008000	1.633503
4.008500	1.631910
4.009000	1.632229
4.009500	1.635733
4.010000	1.632866
4.010500	1.631910
4.011000	1.633503
4.011500	1.633185
4.012000	1.633822
4.012500	1.633503
4.013000	1.630955
4.013500	1.631592
4.014000	1.635096
4.014500	1.632547
4.015000	1.631910
4.015500	1.633503
4.016000	1.633185
4.016500	1.633822
4.017000	1.634459
4.017500	1.631273
4.018000	1.632866
4.018500	1.635414
4.019000	1.633185
4.019500	1.633185
4.020000	1.633185
4.020500	1.632547
4.021000	1.635096
4.021500	1.633822
4.022000	1.630636
4.022500	1.633185
4.023000	1.635414
4.023500	1.633185
4.024000	1.632547
4.024500	1.634140
4.025000	1.633185
4.025500	1.635733
4.026000	1.634459
4.026500	1.630955
4.027000	1.633822
4.027500	1.634140
4.028000	1.632547
4.028500	1.633185
4.029000	1.632866
4.029500	1.632866
4.030000	1.636688
4.030500	1.633822
4.031000	1.631273
4.031500	1.633822
4.032000	1.634459
4.032500	1.633822
4.033000	1.633822
4.033500	1.632547
4.034000	1.632866
4.034500	1.637007
4.035000	1.634140
4.035500	1.631910
4.036000	1.634777
4.036500	1.634140
4.037000	1.633503
4.037500	1.635096
4.038000	1.632547
4.038500	1.632547
4.039000	1.635733
4.039500	1.633822
4.040000	1.631910
4.040500	1.633822
4.041000	1.632866
4.041500	1.634140
4.042000	1.634140
4.042500	1.630318
4.043000	1.632547
4.043500	1.636051
4.044000	1.633185
4.044500	1.632866
4.045000	1.633503
4.045500	1.633185
4.046000	1.635096
4.046500	1.634140
4.047000	1.631592
4.047500	1.632866
4.048000	1.635096
4.048500	1.633503
4.049000	1.633503
4.049500	1.633822
4.050000	1.633503
4.050500	1.634459
4.051000	1.634140
4.051500	1.631592
4.052000	1.633503
4.052500	1.634777
4.053000	1.632547
4.053500	1.633185
4.054000	1.633822
4.054500	1.632547
4.055000	1.635096
4.055500	1.635096
4.056000	1.630636
4.056500	1.632866
4.057000	1.634140
4.057500	1.632229
4.058000	1.633185
4.058500	1.633185
4.059000	1.632229
4.059500	1.635733
4.060000	1.633822
4.060500	1.630636
4.061000	1.633503
4.061500	1.633503
4.062000	1.632229
4.062500	1.633185
4.063000	1.631592
4.063500	1.632547
4.064000	1.636051
4.064500	1.634140
4.065000	1.631592
4.065500	1.633503
4.066000	1.633503
4.066500	1.632866
4.067000	1.633822
4.067500	1.630636
4.068000	1.631273
4.068500	1.635733
4.069000	1.633185
4.069500	1.631273
4.070000	1.633822
4.070500	1.632547
4.071000	1.633185
4.071500	1.633503
4.072000	1.630636
4.072500	1.632547
4.073000	1.634777
4.073500	1.633185
4.074000	1.632547
4.074500	1.633822
4.075000	1.632229
4.075500	1.634140
4.076000	1.633503
4.076500	1.630318
4.077000	1.632547
4.077500	1.634459
4.078000	1.632866
4.078500	1.632547
4.079000	1.632866
4.079500	1.631910
4.080000	1.635096
4.080500	1.633822
4.081000	1.630318
4.081500	1.632866
4.082000	1.633822
4.082500	1.632866
4.083000	1.632547
4.083500	1.632547
4.084000	1.632229
4.084500	1.635414
4.085000	1.633822
4.085500	1.630318
4.086000	1.633185
4.086500	1.633185
4.087000	1.632229
4.087500	1.632547
4.088000	1.632547
4.088500	1.632547
4.089000	1.635733
4.089500	1.633185
4.090000	1.631592
4.090500	1.632866
4.091000	1.632547
4.091500	1.633503
4.092000	1.633503
4.092500	1.630318
4.093000	1.631910
4.093500	1.636051
4.094000	1.633185
4.094500	1.631910
4.095000	1.633503
4.095500	1.632229
4.096000	1.631910
4.096500	1.632866
4.097000	1.630636
4.097500	1.631273
4.098000	1.635414
4.098500	1.632866
4.099000	1.632547
4.099500	1.633822
4.100000	1.632866
4.100500	1.634140
4.101000	1.633503
4.101500	1.630955
4.102000	1.632547
4.102500	1.634140
4.103000	1.632229
4.103500	1.632547
4.104000	1.633822
4.104500	1.631910
4.105000	1.634140
4.105500	1.634140
4.106000	1.629681
4.106500	1.633185
4.107000	1.634459
4.107500	1.631910
4.108000	1.633185
4.108500	1.632229
4.109000	1.632229
4.109500	1.635414
4.110000	1.633503
4.110500	1.630955
4.111000	1.634140
4.111500	1.633822
4.112000	1.633185
4.112500	1.633185
4.113000	1.632866
4.113500	1.632547
4.114000	1.636370
4.114500	1.633503
4.115000	1.631273
4.115500	1.633185
4.116000	1.633185
4.116500	1.632229
4.117000	1.633503
4.117500	1.631592
4.118000	1.632547
4.118500	1.635733
4.119000	1.633822
4.119500	1.631273
4.120000	1.634140
4.120500	1.633185
4.121000	1.633503
4.121500	1.633822
4.122000	1.630955
4.122500	1.632866
4.123000	1.635414
4.123500	1.633185
4.124000	1.632866
4.124500	1.633822
4.125000	1.633503
4.125500	1.634459
4.126000	1.635096
4.126500	1.630955
4.127000	1.632866
4.127500	1.635096
4.128000	1.633503
4.128500	1.633822
4.129000	1.633822
4.129500	1.632866
4.130000	1.635414
4.130500	1.634777
4.131000	1.630636
4.131500	1.632547
4.132000	1.634140
4.132500	1.633185
4.133000	1.634140
4.133500	1.633185
4.134000	1.632547
4.134500	1.636370
4.135000	1.634140
4.135500	1.631273
4.136000	1.633503
4.136500	1.633822
4.137000	1.632866
4.137500	1.633822
4.138000	1.631592
4.138500	1.631910
4.139000	1.635414
4.139500	1.633185
4.140000	1.631592
4.140500	1.634140
4.141000	1.633822
4.141500	1.632866
4.142000	1.634140
4.142500	1.631592
4.143000	1.632866
4.143500	1.634777
4.144000	1.633503
4.144500	1.631592
4.145000	1.634140
4.145500	1.632866
4.146000	1.633822
4.146500	1.633822
4.147000	1.629999
4.147500	1.632547
4.148000	1.635096
4.148500	1.632547
4.149000	1.632547
4.149500	1.633822
4.150000	1.632229
4.150500	1.634140
4.151000	1.633503
4.151500	1.630318
4.152000	1.632229
4.152500	1.634140
4.153000	1.631910
4.153500	1.633185
4.154000	1.633503
4.154500	1.633185
4.155000	1.635096
4.155500	1.633822
4.156000	1.629999
4.156500	1.633503
4.157000	1.633503
4.157500	1.632229
4.158000	1.633185
4.158500	1.632229
4.159000	1.632229
4.159500	1.635096
4.160000	1.633503
4.160500	1.630636
4.161000	1.632866
4.161500	1.633822
4.162000	1.632547
4.162500	1.633185
4.163000	1.630955
4.163500	1.631910
4.164000	1.635414
4.164500	1.633503
4.165000	1.630636
4.165500	1.632866
4.166000	1.632866
4.166500	1.631910
4.167000	1.633185
4.167500	1.630318
4.168000	1.631592
4.168500	1.634777
4.169000	1.632229
4.169500	1.631910
4.170000	1.633503
4.170500	1.631910
4.171000	1.633185
4.171500	1.633503
4.172000	1.629362
4.172500	1.632866
4.173000	1.634459
4.173500	1.631592
4.174000	1.633185
4.174500	1.633185
4.175000	1.632229
4.175500	1.634140
4.176000	1.634140
4.176500	1.629999
4.177000	1.633185
4.177500	1.634140
4.178000	1.632547
4.178500	1.633185
4.179000	1.632547
4.179500	1.631273
4.180000	1.635096
4.180500	1.634140
4.181000	1.630318
4.181500	1.633503
4.182000	1.633822
4.182500	1.631910
4.183000	1.632229
4.183500	1.631592
4.184000	1.632547
4.184500	1.635733
4.185000	1.632866
4.185500	1.631273
4.186000	1.633503
4.186500	1.632866
4.187000	1.632866
4.187500	1.633822
4.188000	1.631592
4.188500	1.632229
4.189000	1.635096
4.189500	1.632866
4.190000	1.631592
4.190500	1.633822
4.191000	1.633185
4.191500	1.633503
4.192000	1.633822
4.192500	1.630318
4.193000	1.632229
4.193500	1.634459
4.194000	1.633822
4.194500	1.632547
4.195000	1.633503
4.195500	1.631910
4.196000	1.633822
4.196500	1.633185
4.197000	1.629999
4.197500	1.633185
4.198000	1.633503
4.198500	1.632547
4.199000	1.632866
4.199500	1.633503
4.200000	1.631910
4.200500	1.635096
4.201000	1.633503
4.201500	1.630318
4.202000	1.632547
4.202500	1.633503
4.203000	1.632229
4.203500	1.633503
4.204000	1.632547
4.204500	1.631592
4.205000	1.635733
4.205500	1.632866
4.206000	1.630636
4.206500	1.633822
4.207000	1.632866
4.207500	1.631910
4.208000	1.633503
4.208500	1.631910
4.209000	1.631592
4.209500	1.635096
4.210000	1.633503
4.210500	1.631592
4.211000	1.633503
4.211500	1.632547
4.212000	1.633185
4.212500	1.633822
4.213000	1.630636
4.213500	1.631910
4.214000	1.635414
4.214500	1.633822
4.215000	1.631273
4.215500	1.633503
4.216000	1.633185
4.216500	1.633822
4.217000	1.633503
4.217500	1.629999
4.218000	1.631592
4.218500	1.635096
4.219000	1.632229
4.219500	1.632547
4.220000	1.633503
4.220500	1.631273
4.221000	1.635096
4.221500	1.633822
4.222000	1.629999
4.222500	1.632229
4.223000	1.633822
4.223500	1.632866
4.224000	1.632866
4.224500	1.632547
4.225000	1.631910
4.225500	1.634777
4.226000	1.634140
4.226500	1.629999
4.227000	1.632547
4.227500	1.633822
4.228000	1.631592
4.228500	1.633185
4.229000	1.632547
4.229500	1.632547
4.230000	1.635096
4.230500	1.633822
4.231000	1.630636
4.231500	1.632547
4.232000	1.633185
4.232500	1.632547
4.233000	1.633503
4.233500	1.632229
4.234000	1.631273
4.234500	1.634777
4.235000	1.633185
4.235500	1.630955
4.236000	1.633822
4.236500	1.633185
4.237000	1.633185
4.237500	1.634140
4.238000	1.631273
4.238500	1.631592
4.239000	1.635414
4.239500	1.632547
4.240000	1.631273
4.240500	1.633503
4.241000	1.632547
4.241500	1.633185
4.242000	1.633185
4.242500	1.629999
4.243000	1.631273
4.243500	1.635096
4.244000	1.633822
4.244500	1.632547
4.245000	1.633822
4.245500	1.632229
4.246000	1.633503
4.246500	1.633503
4.247000	1.630318
4.247500	1.632547
4.248000	1.633822
4.248500	1.631910
4.249000	1.633185
4.249500	1.633185
4.250000	1.632866
4.250500	1.633822
4.251000	1.633503
4.251500	1.629999
4.252000	1.633185
4.252500	1.634140
4.253000	1.632229
4.253500	1.632547
4.254000	1.632866
4.254500	1.631273
4.255000	1.635414
4.255500	1.633185
4.256000	1.630636
4.256500	1.633185
4.257000	1.633822
4.257500	1.632866
4.258000	1.632866
4.258500	1.632229
4.259000	1.632866
4.259500	1.635414
4.260000	1.633822
4.260500	1.631592
4.261000	1.634140
4.261500	1.633185
4.262000	1.632866
4.262500	1.633503
4.263000	1.631273
4.263500	1.631910
4.264000	1.635414
4.264500	1.633822
4.265000	1.631592
4.265500	1.634140
4.266000	1.633503
4.266500	1.633503
4.267000	1.633822
4.267500	1.630955
4.268000	1.631910
4.268500	1.635733
4.269000	1.633822
4.269500	1.632547
4.270000	1.633503
4.270500	1.633503
4.271000	1.634140
4.271500	1.633822
4.272000	1.630636
4.272500	1.632547
4.273000	1.634777
4.273500	1.633185
4.274000	1.633185
4.274500	1.633822
4.275000	1.633822
4.275500	1.635096
4.276000	1.634140
4.276500	1.630636
4.277000	1.633185
4.277500	1.633822
4.278000	1.632866
4.278500	1.633185
4.279000	1.632866
4.279500	1.632866
4.280000	1.635733
4.280500	1.633503
4.281000	1.630955
4.281500	1.633822
4.282000	1.633503
4.282500	1.631273
4.283000	1.633503
4.283500	1.631910
4.284000	1.631592
4.284500	1.636051
4.285000	1.633822
4.285500	1.630955
4.286000	1.632866
4.286500	1.632547
4.287000	1.632547
4.287500	1.633503
4.288000	1.631910
4.288500	1.632547
4.289000	1.635096
4.289500	1.632547
4.290000	1.632547
4.290500	1.634140
4.291000	1.632547
4.291500	1.633503
4.292000	1.633185
4.292500	1.630318
4.293000	1.631910
4.293500	1.634459
4.294000	1.632547
4.294500	1.632547
4.295000	1.632866
4.295500	1.632547
4.296000	1.633503
4.296500	1.633503
4.297000	1.629999
4.297500	1.632866
4.298000	1.634777
4.298500	1.632866
4.299000	1.633185
4.299500	1.633185
4.300000	1.631910
4.300500	1.633822
4.301000	1.633503
4.301500	1.629999
4.302000	1.631592
4.302500	1.633822
4.303000	1.632547
4.303500	1.632547
4.304000	1.632866
4.304500	1.632547
4.305000	1.634459
4.305500	1.633503
4.306000	1.629999
4.306500	1.631910
4.307000	1.633503
4.307500	1.630955
4.308000	1.632866
4.308500	1.631910
4.309000	1.631910
4.309500	1.635096
4.310000	1.633185
4.310500	1.629681
4.311000	1.632547
4.311500	1.632547
4.312000	1.632547
4.312500	1.633185
4.313000	1.631273
4.313500	1.630955
4.314000	1.635096
4.314500	1.633185
4.315000	1.629999
4.315500	1.632547
4.316000	1.632866
4.316500	1.631273
4.317000	1.633185
4.317500	1.630955
4.318000	1.630636
4.318500	1.634459
4.319000	1.633185
4.319500	1.630636
4.320000	1.632229
4.320500	1.632866
4.321000	1.631592
4.321500	1.632547
4.322000	1.631273
4.322500	1.631592
4.323000	1.635096
4.323500	1.631910
4.324000	1.631273
4.324500	1.632866
4.325000	1.632866
4.325500	1.632547
4.326000	1.632866
4.326500	1.630318
4.327000	1.630955
4.327500	1.634140
4.328000	1.632547
4.328500	1.631910
4.329000	1.633822
4.329500	1.633185
4.330000	1.632866
4.330500	1.633822
4.331000	1.629999
4.331500	1.631273
4.332000	1.634140
4.332500	1.631910
4.333000	1.631910
4.333500	1.633185
4.334000	1.631273
4.334500	1.634777
4.335000	1.633822
4.335500	1.629999
4.336000	1.632547
4.336500	1.633185
4.337000	1.632229
4.337500	1.633185
4.338000	1.633185
4.338500	1.631910
4.339000	1.635096
4.339500	1.633503
4.340000	1.629999
4.340500	1.632229
4.341000	1.634459
4.341500	1.632866
4.342000	1.633185
4.342500	1.631592
4.343000	1.631910
4.343500	1.635096
4.344000	1.633822
4.344500	1.630955
4.345000	1.632547
4.345500	1.633822
4.346000	1.632866
4.346500	1.633185
4.347000	1.632547
4.347500	1.631273
4.348000	1.635733
4.348500	1.633822
4.349000	1.630955
4.349500	1.633822
4.350000	1.633503
4.350500	1.632547
4.351000	1.633822
4.351500	1.631273
4.352000	1.631910
4.352500	1.635733
4.353000	1.633822
4.353500	1.632547
4.354000	1.634140
4.354500	1.633822
4.355000	1.633503
4.355500	1.634140
4.356000	1.631273
4.356500	1.632229
4.357000	1.635096
4.357500	1.633503
4.358000	1.632547
4.358500	1.634140
4.359000	1.633503
4.359500	1.633503
4.360000	1.634459
4.360500	1.630636
4.361000	1.633185
4.361500	1.636370
4.362000	1.633822
4.362500	1.633503
4.363000	1.634140
4.363500	1.633503
4.364000	1.635096
4.364500	1.634140
4.365000	1.630636
4.365500	1.634140
4.366000	1.635096
4.366500	1.631910
4.367000	1.633503
4.367500	1.633503
4.368000	1.632547
4.368500	1.636051
4.369000	1.634140
4.369500	1.631592
4.370000	1.633822
4.370500	1.634140
4.371000	1.632229
4.371500	1.634140
4.372000	1.632866
4.372500	1.633503
4.373000	1.635414
4.373500	1.633822
4.374000	1.631592
4.374500	1.633503
4.375000	1.634140
4.375500	1.632547
4.376000	1.633822
4.376500	1.632547
4.377000	1.632229
4.377500	1.636370
4.378000	1.634777
4.378500	1.631910
4.379000	1.633185
4.379500	1.633185
4.380000	1.631592
4.380500	1.633503
4.381000	1.631592
4.381500	1.631910
4.382000	1.636370
4.382500	1.633503
4.383000	1.631592
4.383500	1.633503
4.384000	1.633822
4.384500	1.633185
4.385000	1.633822
4.385500	1.630318
4.386000	1.632866
4.386500	1.635096
4.387000	1.633503
4.387500	1.632229
4.388000	1.633503
4.388500	1.632229
4.389000	1.634140
4.389500	1.633503
4.390000	1.630318
4.390500	1.632866
4.391000	1.634777
4.391500	1.632229
4.392000	1.632866
4.392500	1.633185
4.393000	1.632229
4.393500	1.635096
4.394000	1.633503
4.394500	1.630636
4.395000	1.633503
4.395500	1.634140
4.396000	1.632547
4.396500	1.633503
4.397000	1.632547
4.397500	1.631592
4.398000	1.635414
4.398500	1.633822
4.399000	1.629999
4.399500	1.632866
4.400000	1.633185
4.400500	1.632547
4.401000	1.633503
4.401500	1.631592
4.402000	1.632229
4.402500	1.635414
4.403000	1.633503
4.403500	1.631273
4.404000	1.633822
4.404500	1.633503
4.405000	1.632866
4.405500	1.633822
4.406000	1.630955
4.406500	1.632229
4.407000	1.635414
4.407500	1.633822
4.408000	1.631592
4.408500	1.633822
4.409000	1.632229
4.409500	1.632866
4.410000	1.634140
4.410500	1.630318
4.411000	1.632229
4.411500	1.635414
4.412000	1.632866
4.412500	1.633185
4.413000	1.633503
4.413500	1.632866
4.414000	1.634777
4.414500	1.633822
4.415000	1.629999
4.415500	1.633185
4.416000	1.634459
4.416500	1.632229
4.417000	1.632229
4.417500	1.633185
4.418000	1.632229
4.418500	1.635096
4.419000	1.634140
4.419500	1.630318
4.420000	1.633503
4.420500	1.634140
4.421000	1.632229
4.421500	1.633185
4.422000	1.632547
4.422500	1.631910
4.423000	1.635414
4.423500	1.633822
4.424000	1.630955
4.424500	1.633822
4.425000	1.633822
4.425500	1.633185
4.426000	1.633185
4.426500	1.631592
4.427000	1.631910
4.427500	1.635414
4.428000	1.633822
4.428500	1.630955
4.429000	1.634140
4.429500	1.633822
4.430000	1.632866
4.430500	1.632866
4.431000	1.631592
4.431500	1.632866
4.432000	1.637007
4.432500	1.633185
4.433000	1.632547
4.433500	1.633503
4.434000	1.633185
4.434500	1.634140
4.435000	1.634140
4.435500	1.629999
4.436000	1.633503
4.436500	1.635414
4.437000	1.633822
4.437500	1.632229
4.438000	1.633503
4.438500	1.632866
4.439000	1.633822
4.439500	1.634459
4.440000	1.629999
4.440500	1.632866
4.441000	1.634459
4.441500	1.633822
4.442000	1.633503
4.442500	1.633822
4.443000	1.632547
4.443500	1.635096
4.444000	1.634459
4.444500	1.629999
4.445000	1.633185
4.445500	1.634459
4.446000	1.632229
4.446500	1.633185
4.447000	1.633185
4.447500	1.632866
4.448000	1.635096
4.448500	1.633822
4.449000	1.630636
4.449500	1.633503
4.450000	1.633822
4.450500	1.632547
4.451000	1.633185
4.451500	1.632547
4.452000	1.632547
4.452500	1.635733
4.453000	1.633822
4.453500	1.631273
4.454000	1.634140
4.454500	1.634140
4.455000	1.632866
4.455500	1.633503
4.456000	1.632866
4.456500	1.631910
4.457000	1.635733
4.457500	1.633185
4.458000	1.631592
4.458500	1.633822
4.459000	1.633822
4.459500	1.632866
4.460000	1.633503
4.460500	1.632547
4.461000	1.632866
4.461500	1.636051
4.462000	1.633185
4.462500	1.631273
4.463000	1.633822
4.463500	1.633185
4.464000	1.633503
4.464500	1.633822
4.465000	1.631910
4.465500	1.633185
4.466000	1.636051
4.466500	1.634140
4.467000	1.632866
4.467500	1.634459
4.468000	1.633185
4.468500	1.633503
4.469000	1.634140
4.469500	1.631592
4.470000	1.632866
4.470500	1.636370
4.471000	1.633503
4.471500	1.633503
4.472000	1.633503
4.472500	1.633822
4.473000	1.634459
4.473500	1.634140
4.474000	1.630955
4.474500	1.632866
4.475000	1.636051
4.475500	1.633822
4.476000	1.632866
4.476500	1.633822
4.477000	1.632866
4.477500	1.634459
4.478000	1.633822
4.478500	1.630636
4.479000	1.632547
4.479500	1.634777
4.480000	1.632547
4.480500	1.633822
4.481000	1.633822
4.481500	1.632547
4.482000	1.635414
4.482500	1.634140
4.483000	1.631592
4.483500	1.633503
4.484000	1.634777
4.484500	1.633503
4.485000	1.633185
4.485500	1.632866
4.486000	1.632547
4.486500	1.636051
4.487000	1.634140
4.487500	1.630636
4.488000	1.633822
4.488500	1.633503
4.489000	1.633822
4.489500	1.633822
4.490000	1.632866
4.490500	1.632547
4.491000	1.635414
4.491500	1.634140
4.492000	1.631910
4.492500	1.633822
4.493000	1.633822
4.493500	1.633185
4.494000	1.634140
4.494500	1.631910
4.495000	1.632866
4.495500	1.636370
4.496000	1.635096
4.496500	1.631910
4.497000	1.633822
4.497500	1.632866
4.498000	1.633503
4.498500	1.634459
4.499000	1.631910
4.499500	1.632547
4.500000	1.637007
4.500500	1.633503
4.501000	1.632547
4.501500	1.634140
4.502000	1.633822
4.502500	1.633822
4.503000	1.634140
4.503500	1.631592
4.504000	1.632547
4.504500	1.636688
4.505000	1.633822
4.505500	1.633185
4.506000	1.633822
4.506500	1.633503
4.507000	1.634777
4.507500	1.633822
4.508000	1.631273
4.508500	1.633503
4.509000	1.635096
4.509500	1.633822
4.510000	1.633503
4.510500	1.634777
4.511000	1.633185
4.511500	1.634459
4.512000	1.634459
4.512500	1.630955
4.513000	1.632866
4.513500	1.636370
4.514000	1.633503
4.514500	1.634140
4.515000	1.633503
4.515500	1.633503
4.516000	1.635414
4.516500	1.634459
4.517000	1.630318
4.517500	1.632866
4.518000	1.635096
4.518500	1.633503
4.519000	1.633503
4.519500	1.633822
4.520000	1.633503
4.520500	1.635414
4.521000	1.634459
4.521500	1.630636
4.522000	1.633503
4.522500	1.636051
4.523000	1.633503
4.523500	1.633822
4.524000	1.633185
4.524500	1.632866
4.525000	1.635414
4.525500	1.633822
4.526000	1.630955
4.526500	1.632547
4.527000	1.634459
4.527500	1.632547
4.528000	1.633503
4.528500	1.633503
4.529000	1.633503
4.529500	1.635733
4.530000	1.634459
4.530500	1.630636
4.531000	1.633822
4.531500	1.634140
4.532000	1.632547
4.532500	1.633822
4.533000	1.632866
4.533500	1.631910
4.534000	1.635733
4.534500	1.633503
4.535000	1.632229
4.535500	1.633822
4.536000	1.633822
4.536500	1.633185
4.537000	1.633822
4.537500	1.631910
4.538000	1.632547
4.538500	1.635733
4.539000	1.634140
4.539500	1.631273
4.540000	1.633822
4.540500	1.632547
4.541000	1.632866
4.541500	1.633822
4.542000	1.631592
4.542500	1.632229
4.543000	1.636370
4.543500	1.632547
4.544000	1.631592
4.544500	1.634140
4.545000	1.633185
4.545500	1.633503
4.546000	1.634140
4.546500	1.631273
4.547000	1.632229
4.547500	1.636051
4.548000	1.632547
4.548500	1.631592
4.549000	1.633822
4.549500	1.632866
4.550000	1.633822
4.550500	1.633503
4.551000	1.631273
4.551500	1.632547
4.552000	1.634459
4.552500	1.633185
4.553000	1.632866
4.553500	1.633503
4.554000	1.633185
4.554500	1.633503
4.555000	1.633503
4.555500	1.630318
4.556000	1.632547
4.556500	1.635414
4.557000	1.632547
4.557500	1.633185
4.558000	1.633822
4.558500	1.632866
4.559000	1.633822
4.559500	1.634140
4.560000	1.630955
4.560500	1.632866
4.561000	1.634459
4.561500	1.633185
4.562000	1.632866
4.562500	1.633185
4.563000	1.632547
4.563500	1.635096
4.564000	1.633822
4.564500	1.630318
4.565000	1.633185
4.565500	1.635414
4.566000	1.632229
4.566500	1.633185
4.567000	1.633503
4.567500	1.633185
4.568000	1.635733
4.568500	1.633822
4.569000	1.630318
4.569500	1.633822
4.570000	1.633822
4.570500	1.632547
4.571000	1.633503
4.571500	1.633503
4.572000	1.631592
4.572500	1.636051
4.573000	1.633503
4.573500	1.631273
4.574000	1.632866
4.574500	1.633822
4.575000	1.633503
4.575500	1.633822
4.576000	1.633185
4.576500	1.632866
4.577000	1.636370
4.577500	1.633822
4.578000	1.631910
4.578500	1.633822
4.579000	1.633503
4.579500	1.633185
4.580000	1.634459
4.580500	1.631273
4.581000	1.632866
4.581500	1.636370
4.582000	1.633185
4.582500	1.632547
4.583000	1.634140
4.583500	1.633185
4.584000	1.633822
4.584500	1.634777
4.585000	1.631910
4.585500	1.632547
4.586000	1.635733
4.586500	1.633822
4.587000	1.632866
4.587500	1.633822
4.588000	1.633185
4.588500	1.633185
4.589000	1.634140
4.589500	1.631273
4.590000	1.633185
4.590500	1.636688
4.591000	1.633822
4.591500	1.632866
4.592000	1.634140
4.592500	1.633503
4.593000	1.634140
4.593500	1.634140
4.594000	1.631273
4.594500	1.632547
4.595000	1.635096
4.595500	1.633822
4.596000	1.631910
4.596500	1.633822
4.597000	1.633185
4.597500	1.634140
4.598000	1.634140
4.598500	1.630636
4.599000	1.633185
4.599500	1.635096
4.600000	1.633185
4.600500	1.632866
4.601000	1.633822
4.601500	1.632547
4.602000	1.635096
4.602500	1.633503
4.603000	1.630955
4.603500	1.632866
4.604000	1.633822
4.604500	1.632866
4.605000	1.634140
4.605500	1.632866
4.606000	1.632547
4.606500	1.635096
4.607000	1.633822
4.607500	1.630636
4.608000	1.632866
4.608500	1.633822
4.609000	1.632547
4.609500	1.633503
4.610000	1.631910
4.610500	1.632547
4.611000	1.635096
4.611500	1.633822
4.612000	1.631910
4.612500	1.633822
4.613000	1.633503
4.613500	1.632866
4.614000	1.633822
4.614500	1.631592
4.615000	1.631910
4.615500	1.636370
4.616000	1.632547
4.616500	1.631592
4.617000	1.632866
4.617500	1.632547
4.618000	1.633822
4.618500	1.633822
4.619000	1.631273
4.619500	1.631910
4.620000	1.636370
4.620500	1.632866
4.621000	1.631592
4.621500	1.634140
4.622000	1.632547
4.622500	1.633822
4.623000	1.633503
4.623500	1.630636
4.624000	1.632547
4.624500	1.635096
4.625000	1.632547
4.625500	1.631910
4.626000	1.633185
4.626500	1.632547
4.627000	1.633822
4.627500	1.633503
4.628000	1.629999
4.628500	1.632229
4.629000	1.635096
4.629500	1.631273
4.630000	1.633185
4.630500	1.633185
4.631000	1.632547
4.631500	1.633822
4.632000	1.633822
4.632500	1.629362
4.633000	1.632866
4.633500	1.633822
4.634000	1.632229
4.634500	1.631592
4.635000	1.632866
4.635500	1.632229
4.636000	1.634777
4.636500	1.633503
4.637000	1.629999
4.637500	1.632547
4.638000	1.634140
4.638500	1.631910
4.639000	1.633822
4.639500	1.631910
4.640000	1.631910
4.640500	1.634459
4.641000	1.633503
4.641500	1.630955
4.642000	1.633185
4.642500	1.633822
4.643000	1.632866
4.643500	1.632547
4.644000	1.631592
4.644500	1.631910
4.645000	1.636051
4.645500	1.633822
4.646000	1.630636
4.646500	1.633503
4.647000	1.633185
4.647500	1.633185
4.648000	1.633503
4.648500	1.630636
4.649000	1.631910
4.649500	1.635414
4.650000	1.633503
4.650500	1.631592
4.651000	1.633185
4.651500	1.631910
4.652000	1.633503
4.652500	1.633503
4.653000	1.629999
4.653500	1.631273
4.654000	1.634777
4.654500	1.634140
4.655000	1.632866
4.655500	1.633185
4.656000	1.631592
4.656500	1.633822
4.657000	1.633503
4.657500	1.629362
4.658000	1.632547
4.658500	1.634140
4.659000	1.631910
4.659500	1.633185
4.660000	1.633822
4.660500	1.631910
4.661000	1.635096
4.661500	1.633822
4.662000	1.630318
4.662500	1.632866
4.663000	1.634459
4.663500	1.631592
4.664000	1.634140
4.664500	1.633185
4.665000	1.631592
4.665500	1.635414
4.666000	1.633185
4.666500	1.630636
4.667000	1.633503
4.667500	1.633822
4.668000	1.632547
4.668500	1.632866
4.669000	1.632229
4.669500	1.632547
4.670000	1.636370
4.670500	1.634140
4.671000	1.631592
4.671500	1.633822
4.672000	1.633185
4.672500	1.632547
4.673000	1.634140
4.673500	1.631910
4.674000	1.631910
4.674500	1.635414
4.675000	1.633822
4.675500	1.632229
4.676000	1.634459
4.676500	1.633503
4.677000	1.633503
4.677500	1.633822
4.678000	1.632229
4.678500	1.632547
4.679000	1.636051
4.679500	1.633822
4.680000	1.633185
4.680500	1.633822
4.681000	1.633185
4.681500	1.633185
4.682000	1.634140
4.682500	1.631592
4.683000	1.632866
4.683500	1.636688
4.684000	1.633822
4.684500	1.632547
4.685000	1.633822
4.685500	1.633822
4.686000	1.634777
4.686500	1.634140
4.687000	1.631273
4.687500	1.632229
4.688000	1.635096
4.688500	1.633185
4.689000	1.633185
4.689500	1.633822
4.690000	1.634140
4.690500	1.634777
4.691000	1.634459
4.691500	1.630636
4.692000	1.633185
4.692500	1.635414
4.693000	1.633822
4.693500	1.633503
4.694000	1.633185
4.694500	1.633185
4.695000	1.635733
4.695500	1.633503
4.696000	1.630636
4.696500	1.633503
4.697000	1.635096
4.697500	1.633503
4.698000	1.633822
4.698500	1.633185
4.699000	1.631592
4.699500	1.635096
4.700000	1.634140
4.700500	1.631273
4.701000	1.633822
4.701500	1.633503
4.702000	1.633822
4.702500	1.632547
4.703000	1.632547
4.703500	1.631592
4.704000	1.635733
4.704500	1.634459
4.705000	1.631273
4.705500	1.634140
4.706000	1.633822
4.706500	1.633185
4.707000	1.633822
4.707500	1.631910
4.708000	1.631910
4.708500	1.636370
4.709000	1.634140
4.709500	1.630955
4.710000	1.633185
4.710500	1.633185
4.711000	1.633185
4.711500	1.634140
4.712000	1.631273
4.712500	1.632229
4.713000	1.635414
4.713500	1.632866
4.714000	1.631273
4.714500	1.633822
4.715000	1.632547
4.715500	1.631273
4.716000	1.633822
4.716500	1.630318
4.717000	1.633185
4.717500	1.635096
4.718000	1.631910
4.718500	1.632547
4.719000	1.633822
4.719500	1.632547
4.720000	1.633503
4.720500	1.633822
4.721000	1.630318
4.721500	1.631910
4.722000	1.635414
4.722500	1.632547
4.723000	1.630955
4.723500	1.633822
4.724000	1.633185
4.724500	1.634459
4.725000	1.633822
4.725500	1.630318
4.726000	1.632866
4.726500	1.634459
4.727000	1.632866
4.727500	1.632866
4.728000	1.633503
4.728500	1.632866
4.729000	1.634459
4.729500	1.633822
4.730000	1.630636
4.730500	1.633822
4.731000	1.634140
4.731500	1.632866
4.732000	1.632866
4.732500	1.631910
4.733000	1.632229
4.733500	1.635414
4.734000	1.633503
4.734500	1.630318
4.735000	1.633822
4.735500	1.633185
4.736000	1.631592
4.736500	1.633822
4.737000	1.631910
4.737500	1.631592
4.738000	1.635733
4.738500	1.633185
4.739000	1.630955
4.739500	1.633503
4.740000	1.633185
4.740500	1.632547
4.741000	1.633503
4.741500	1.631592
4.742000	1.633185
4.742500	1.635414
4.743000	1.632547
4.743500	1.631592
4.744000	1.633822
4.744500	1.633503
4.745000	1.633503
4.745500	1.633185
4.746000	1.632229
4.746500	1.632866
4.747000	1.635733
4.747500	1.633822
4.748000	1.632547
4.748500	1.633822
4.749000	1.633185
4.749500	1.633503
4.750000	1.634140
4.750500	1.630955
4.751000	1.632547
4.751500	1.636051
4.752000	1.633503
4.752500	1.632866
4.753000	1.633822
4.753500	1.632229
4.754000	1.633503
4.754500	1.634140
4.755000	1.631592
4.755500	1.632866
4.756000	1.635414
4.756500	1.633185
4.757000	1.632229
4.757500	1.634140
4.758000	1.633185
4.758500	1.634459
4.759000	1.634140
4.759500	1.630636
4.760000	1.633185
4.760500	1.635414
4.761000	1.632866
4.761500	1.633503
4.762000	1.633822
4.762500	1.633185
4.763000	1.634140
4.763500	1.633185
4.764000	1.630955
4.764500	1.632866
4.765000	1.635096
4.765500	1.633503
4.766000	1.633503
4.766500	1.632547
4.767000	1.632547
4.767500	1.635096
4.768000	1.634140
4.768500	1.629999
4.769000	1.633503
4.769500	1.635096
4.770000	1.632229
4.770500	1.633822
4.771000	1.633185
4.771500	1.633185
4.772000	1.636688
4.772500	1.633822
4.773000	1.630955
4.773500	1.633503
4.774000	1.632547
4.774500	1.633185
4.775000	1.633822
4.775500	1.632547
4.776000	1.632229
4.776500	1.635733
4.777000	1.633503
4.777500	1.630955
4.778000	1.633822
4.778500	1.632547
4.779000	1.632547
4.779500	1.633822
4.780000	1.630955
4.780500	1.631592
4.781000	1.635414
4.781500	1.633822
4.782000	1.631910
4.782500	1.633503
4.783000	1.633503
4.783500	1.632547
4.784000	1.633822
4.784500	1.631592
4.785000	1.632229
4.785500	1.636370
4.786000	1.633185
4.786500	1.632229
4.787000	1.633822
4.787500	1.632866
4.788000	1.633185
4.788500	1.634140
4.789000	1.630955
4.789500	1.632229
4.790000	1.635733
4.790500	1.633822
4.791000	1.632229
4.791500	1.633503
4.792000	1.632866
4.792500	1.634140
4.793000	1.633822
4.793500	1.629999
4.794000	1.632229
4.794500	1.634777
4.795000	1.632866
4.795500	1.632229
4.796000	1.633503
4.796500	1.632866
4.797000	1.634140
4.797500	1.633185
4.798000	1.630318
4.798500	1.631910
4.799000	1.634777
4.799500	1.631910
4.800000	1.632866
4.800500	1.632547
4.801000	1.631592
4.801500	1.634459
4.802000	1.633503
4.802500	1.630636
4.803000	1.632547
4.803500	1.634140
4.804000	1.632229
4.804500	1.633822
4.805000	1.632547
4.805500	1.632547
4.806000	1.635414
4.806500	1.633503
4.807000	1.630636
4.807500	1.632866
4.808000	1.633503
4.808500	1.633185
4.809000	1.633503
4.809500	1.633185
4.810000	1.631592
4.810500	1.634777
4.811000	1.633822
4.811500	1.630318
4.812000	1.633185
4.812500	1.633503
4.813000	1.632229
4.813500	1.632547
4.814000	1.632547
4.814500	1.632229
4.815000	1.635414
4.815500	1.633185
4.816000	1.631273
4.816500	1.633503
4.817000	1.633185
4.817500	1.631910
4.818000	1.633503
4.818500	1.630955
4.819000	1.631910
4.819500	1.635414
4.820000	1.633185
4.820500	1.630955
4.821000	1.632229
4.821500	1.632866
4.822000	1.632866
4.822500	1.633822
4.823000	1.631273
4.823500	1.632229
4.824000	1.635414
4.824500	1.632547
4.825000	1.631910
4.825500	1.632547
4.826000	1.632547
4.826500	1.633503
4.827000	1.633822
4.827500	1.630955
4.828000	1.632547
4.828500	1.634777
4.829000	1.631910
4.829500	1.631910
4.830000	1.633822
4.830500	1.632229
4.831000	1.633503
4.831500	1.634140
4.832000	1.629681
4.832500	1.632866
4.833000	1.635096
4.833500	1.632229
4.834000	1.633185
4.834500	1.633822
4.835000	1.631910
4.835500	1.634777
4.836000	1.633503
4.836500	1.630318
4.837000	1.631910
4.837500	1.633822
4.838000	1.631273
4.838500	1.633185
4.839000	1.632229
4.839500	1.631592
4.840000	1.635096
4.840500	1.633822
4.841000	1.629999
4.841500	1.633185
4.842000	1.633822
4.842500	1.632547
4.843000	1.632866
4.843500	1.632866
4.844000	1.632229
4.844500	1.634777
4.845000	1.633822
4.845500	1.629999
4.846000	1.633185
4.846500	1.632547
4.847000	1.633185
4.847500	1.633503
4.848000	1.631910
4.848500	1.632229
4.849000	1.635414
4.849500	1.633503
4.850000	1.631592
4.850500	1.633503
4.851000	1.633185
4.851500	1.632866
4.852000	1.633822
4.852500	1.630636
4.853000	1.632547
4.853500	1.636370
4.854000	1.633185
4.854500	1.631592
4.855000	1.634140
4.855500	1.633822
4.856000	1.633185
4.856500	1.633822
4.857000	1.630318
4.857500	1.632866
4.858000	1.635414
4.858500	1.631910
4.859000	1.631592
4.859500	1.633503
4.860000	1.631910
4.860500	1.633822
4.861000	1.633185
4.861500	1.631273
4.862000	1.632866
4.862500	1.635096
4.863000	1.633185
4.863500	1.633185
4.864000	1.633503
4.864500	1.632547
4.865000	1.633822
4.865500	1.633822
4.866000	1.629999
4.866500	1.632547
4.867000	1.634459
4.867500	1.632866
4.868000	1.633185
4.868500	1.633503
4.869000	1.633185
4.869500	1.634459
4.870000	1.633503
4.870500	1.630318
4.871000	1.632866
4.871500	1.634140
4.872000	1.631592
4.872500	1.633185
4.873000	1.633185
4.873500	1.633185
4.874000	1.634777
4.874500	1.633503
4.875000	1.630318
4.875500	1.633185
4.876000	1.633822
4.876500	1.632547
4.877000	1.633822
4.877500	1.633185
4.878000	1.631273
4.878500	1.634777
4.879000	1.633822
4.879500	1.630636
4.880000	1.633185
4.880500	1.633503
4.881000	1.632547
4.881500	1.632866
4.882000	1.631592
4.882500	1.632866
4.883000	1.635096
4.883500	1.633822
4.884000	1.630636
4.884500	1.633185
4.885000	1.633185
4.885500	1.630955
4.886000	1.633503
4.886500	1.631592
4.887000	1.632547
4.887500	1.635414
4.888000	1.633185
4.888500	1.631273
4.889000	1.633822
4.889500	1.633185
4.890000	1.632229
4.890500	1.633822
4.891000	1.631273
4.891500	1.631592
4.892000	1.634777
4.892500	1.633185
4.893000	1.631592
4.893500	1.633503
4.894000	1.633185
4.894500	1.632547
4.895000	1.633185
4.895500	1.630955
4.896000	1.632229
4.896500	1.634777
4.897000	1.632229
4.897500	1.632229
4.898000	1.633185
4.898500	1.632866
4.899000	1.633822
4.899500	1.633503
4.900000	1.629681
4.900500	1.631910
4.901000	1.636051
4.901500	1.631910
4.902000	1.634140
4.902500	1.634140
4.903000	1.632229
4.903500	1.632866
4.904000	1.633822
4.904500	1.630318
4.905000	1.632547
4.905500	1.635096
4.906000	1.632547
4.906500	1.632866
4.907000	1.633185
4.907500	1.631592
4.908000	1.633503
4.908500	1.633822
4.909000	1.629999
4.909500	1.632547
4.910000	1.634459
4.910500	1.632547
4.911000	1.632547
4.911500	1.632866
4.912000	1.632547
4.912500	1.634140
4.913000	1.633822
4.913500	1.630318
4.914000	1.631910
4.914500	1.634777
4.915000	1.632229
4.915500	1.632229
4.916000	1.633185
4.916500	1.632547
4.917000	1.634140
4.917500	1.633822
4.918000	1.629999
4.918500	1.632229
4.919000	1.634140
4.919500	1.631592
4.920000	1.633185
4.920500	1.632547
4.921000	1.632229
4.921500	1.634459
4.922000	1.633822
4.922500	1.629681
4.923000	1.633503
4.923500	1.633503
4.924000	1.632547
4.924500	1.633185
4.925000	1.632229
4.925500	1.631592
4.926000	1.636370
4.926500	1.632866
4.927000	1.630636
4.927500	1.633822
4.928000	1.632547
4.928500	1.632547
4.929000	1.633822
4.929500	1.631592
4.930000	1.631592
4.930500	1.635733
4.931000	1.633185
4.931500	1.631273
4.932000	1.633822
4.932500	1.632866
4.933000	1.633185
4.933500	1.633503
4.934000	1.630636
4.934500	1.631273
4.935000	1.635414
4.935500	1.632866
4.936000	1.631273
4.936500	1.633503
4.937000	1.632547
4.937500	1.633185
4.938000	1.633503
4.938500	1.630318
4.939000	1.631910
4.939500	1.634777
4.940000	1.632547
4.940500	1.631910
4.941000	1.632547
4.941500	1.632547
4.942000	1.632866
4.942500	1.632547
4.943000	1.628406
4.943500	1.632547
4.944000	1.633822
4.944500	1.631592
4.945000	1.631910
4.945500	1.632547
4.946000	1.630955
4.946500	1.634140
4.947000	1.633185
4.947500	1.629362
4.948000	1.631592
4.948500	1.633822
4.949000	1.632229
4.949500	1.632547
4.950000	1.631910
4.950500	1.630955
4.951000	1.635096
4.951500	1.633503
4.952000	1.628725
4.952500	1.631910
4.953000	1.633185
4.953500	1.631273
4.954000	1.632547
4.954500	1.631910
4.955000	1.631273
4.955500	1.635096
4.956000	1.633185
4.956500	1.629044
4.957000	1.633185
4.957500	1.633185
4.958000	1.631273
4.958500	1.632229
4.959000	1.631273
4.959500	1.630636
4.960000	1.634459
4.960500	1.632229
4.961000	1.630955
4.961500	1.632229
4.962000	1.632547
4.962500	1.631910
4.963000	1.632229
4.963500	1.630636
4.964000	1.630318
4.964500	1.634777
4.965000	1.631910
4.965500	1.630636
4.966000	1.632866
4.966500	1.631910
4.967000	1.632866
4.967500	1.633503
4.968000	1.630318
4.968500	1.631592
4.969000	1.634140
4.969500	1.631592
4.970000	1.631910
4.970500	1.632547
4.971000	1.630636
4.971500	1.633503
4.972000	1.632866
4.972500	1.629681
4.973000	1.631592
4.973500	1.633503
4.974000	1.631910
4.974500	1.632866
4.975000	1.633185
4.975500	1.631592
4.976000	1.633822
4.976500	1.632547
4.977000	1.629681
4.977500	1.632547
4.978000	1.633822
4.978500	1.633185
4.979000	1.633185
4.979500	1.631592
4.980000	1.631273
4.980500	1.635096
4.981000	1.633185
4.981500	1.630636
4.982000	1.633503
4.982500	1.633503
4.983000	1.631910
4.983500	1.633185
4.984000	1.631592
4.984500	1.631273
4.985000	1.635096
4.985500	1.632866
4.986000	1.631592
4.986500	1.633185
4.987000	1.633503
4.987500	1.633822
4.988000	1.633822
4.988500	1.631273
4.989000	1.631910
4.989500	1.636051
4.990000	1.633503
4.990500	1.631910
4.991000	1.633503
4.991500	1.633185
4.992000	1.634459
4.992500	1.634140
4.993000	1.630318
4.993500	1.632547
4.994000	1.635096
4.994500	1.633822
4.995000	1.632866
4.995500	1.633503
4.996000	1.632866
4.996500	1.635096
4.997000	1.634459
4.997500	1.630636
4.998000	1.633185
4.998500	1.635733
4.999000	1.633503
4.999500	1.633503

